sn	ItemX	ItemY	cond	sess	trial	trial_type	title	typeOfScen	x_is_are	x_verb	y_is_are	y_verb	actor	keybResp	keyDef	keybRT	rtBeep	rtDeadline	averageP	sdp	overlap	direct.xVy	overlapRound	correct	avgRT	sdRT	targetPresent	dirOverlap	correct01	res.RT	fit.RT	overlapRoundSN
10	a terrorist	an astronaut	simple	1	14	1	simplified	impersonal	is	kill	is	kill	personally	d	No	8.16223106548118	N/A	-1	0.0542235772357724	0.0196613004138196	0.108447154471545	-1	0.2	1	3887.05	2357.58392133851	FALSE	-0.891552845528455	1	-0.0454367414921979	8.20766780697338	0.2
10	an orphan	a nun	simple	1	23	1	simplified	impersonal	is	kill	is	kill	personally	k	Yes	8.422882511945	N/A	-1	0.331274590163934	0.0408151494092783	0.662549180327869	1	0.7	1	3887.05	2357.58392133851	TRUE	0.337450819672131	1	0.302002031260479	8.12088048068452	0.7
10	a congressman	a rapist	simple	1	31	1	simplified	impersonal	is	kill	is	kill	personally	k	Yes	7.55538194424027	N/A	-1	0.872868644067797	0.0296919007172673	0.254262711864407	1	0.3	1	3887.05	2357.58392133851	TRUE	0.745737288135593	1	-0.489124949838135	8.04450689407841	0.3
10	a rabid possum	a pedophile	simple	1	26	1	simplified	impersonal	is	kill	is	kill	personally	k	Yes	8.58035576637388	N/A	-1	0.3520234375	0.0378515366945483	0.704046875	1	0.8	1	3887.05	2357.58392133851	TRUE	0.295953125	1	0.488199983511819	8.09215578286206	0.8
10	an elderly person	a nun	simple	1	37	1	simplified	impersonal	is	kill	is	kill	personally	k	Yes	7.76641689801966	N/A	-1	0.350416666666667	0.0424038064921918	0.700833333333333	1	0.8	1	3887.05	2357.58392133851	TRUE	0.299166666666667	1	-0.221281536438272	7.98769843445793	0.8
10	a life-saving antidote	an astronaut	simple	1	1	1	simplified	impersonal	is	destroy	is	kill	personally	k	Yes	8.22737550683403	N/A	-1	0.300345238095238	0.0409364299350954	0.600690476190476	1	0.7	1	3887.05	2357.58392133851	TRUE	0.399309523809524	1	-0.107291781667737	8.33466728850177	0.7
10	a rapist	an assassin	simple	1	40	1	simplified	impersonal	is	kill	is	kill	personally	d	No	8.53836742664764	N/A	-1	0.376809160305344	0.0378201733093437	0.753618320610687	-1	0.8	1	3887.05	2357.58392133851	FALSE	-0.246381679389313	1	0.578922606360307	7.95944482028734	0.8
10	a congressman	a rabid possum	simple	1	29	1	simplified	impersonal	is	kill	is	kill	personally	k	Yes	7.44307837434852	N/A	-1	0.8705	0.0302090858370011	0.259	1	0.3	1	3887.05	2357.58392133851	TRUE	0.741	1	-0.620454313992222	8.06353268834074	0.3
10	an adult	a homeless adult	simple	1	12	1	simplified	impersonal	is	kill	is	kill	personally	k	Yes	9.25550492393056	N/A	-1	0.414681102362205	0.0430421897230041	0.829362204724409	1	0.9	1	3887.05	2357.58392133851	TRUE	0.170637795275591	1	1.02842543627555	8.22707948765501	0.9
10	an adult with a deadly contagious disease	an assassin	simple	1	22	1	simplified	impersonal	is	kill	is	kill	personally	d	No	8.14148104145742	N/A	-1	0.703007462686567	0.0373453847031057	0.593985074626866	1	0.6	0	3887.05	2357.58392133851	TRUE	0.406014925373134	0	0.0110030206877703	8.13047802076965	0.6
10	a nun	a homeless adult	simple	1	27	1	simplified	impersonal	is	kill	is	kill	personally	d	No	8.39049553837028	N/A	-1	0.501286259541985	0.0415129156464946	0.997427480916031	-1	1	1	3887.05	2357.58392133851	FALSE	-0.00257251908396905	1	0.307892058497387	8.08260347987289	1
10	a thief	a billionaire	simple	1	24	1	simplified	impersonal	is	kill	is	kill	personally	d	No	7.77527584648686	N/A	-1	0.826482142857143	0.0343610296918462	0.347035714285714	-1	0.4	1	3887.05	2357.58392133851	FALSE	-0.652964285714286	1	-0.3360184234311	8.11129426991796	0.4
10	an adult with a deadly contagious disease	a gang member	simple	1	20	1	simplified	impersonal	is	kill	is	kill	personally	d	No	8.68321597524069	N/A	-1	0.365081395348837	0.0401404770615099	0.730162790697674	1	0.8	0	3887.05	2357.58392133851	TRUE	0.269837209302326	0	0.53350883277168	8.14970714246901	0.8
10	a soldier	a judge	simple	1	33	1	simplified	impersonal	is	kill	is	kill	personally	k	Yes	7.68616230349291	N/A	-1	0.324652892561983	0.0428261590203817	0.649305785123967	1	0.7	1	3887.05	2357.58392133851	TRUE	0.350694214876033	1	-0.339363687422558	8.02552599091546	0.7
10	a rapist	a college student	simple	1	38	1	simplified	impersonal	is	kill	is	kill	personally	d	No	8.05452260953729	N/A	-1	0.955165322580645	0.0184868627503233	0.0896693548387097	-1	0.1	1	3887.05	2357.58392133851	FALSE	-0.91033064516129	1	0.0762531724540381	7.97826943708326	0.1
10	an adult	a congressman	simple	1	8	1	simplified	impersonal	is	kill	is	kill	personally	d	No	8.73664995487245	N/A	-1	0.346709090909091	0.045252948157222	0.693418181818182	1	0.7	0	3887.05	2357.58392133851	TRUE	0.306581818181818	0	0.4706092675235	8.26604068734895	0.7
10	a judge	a rabid possum	simple	1	36	1	simplified	impersonal	is	kill	is	kill	personally	k	Yes	7.35755620091035	N/A	-1	0.966270161290323	0.0148841129102173	0.0674596774193548	1	0.1	1	3887.05	2357.58392133851	TRUE	0.932540322580645	1	-0.639582374440547	7.9971385753509	0.1
10	an astronaut	a terrorist	simple	1	34	1	simplified	impersonal	is	kill	is	kill	personally	k	Yes	7.11232744471091	N/A	-1	0.0542235772357724	0.0196613004138196	0.108447154471545	1	0.2	1	3887.05	2357.58392133851	TRUE	0.891552845528455	1	-0.903724895675603	8.01605234038651	0.2
10	an addict	an adult with a deadly contagious disease	simple	1	16	1	simplified	impersonal	is	kill	is	kill	personally	k	Yes	8.41958036254924	N/A	-1	0.501043307086614	0.0445614486151049	0.997913385826772	1	1	1	3887.05	2357.58392133851	TRUE	0.00208661417322797	1	0.231278434664414	8.18830192788482	1
10	a gang member	a billionaire	simple	1	5	1	simplified	impersonal	is	kill	is	kill	personally	d	No	7.7931743471892	N/A	-1	0.800424107142857	0.0361418371462963	0.399151785714286	-1	0.4	1	3887.05	2357.58392133851	FALSE	-0.600848214285714	1	-0.502208276635451	8.29538262382466	0.4
10	a nun	an elderly person	simple	1	35	1	simplified	impersonal	is	kill	is	kill	personally	d	No	7.87739718635329	N/A	-1	0.350416666666667	0.0424038064921918	0.700833333333333	-1	0.8	1	3887.05	2357.58392133851	FALSE	-0.299166666666667	1	-0.129192686578687	8.00658987293197	0.8
10	a pedophile	a soldier	simple	1	6	1	simplified	impersonal	is	kill	is	kill	personally	d	No	8.0861025356691	N/A	-1	0.031048	0.0153811012048642	0.062096	-1	0.1	1	3887.05	2357.58392133851	FALSE	-0.937904	1	-0.19948788810898	8.28559042377808	0.1
10	an orphan	a convict	simple	1	18	1	simplified	impersonal	is	kill	is	kill	personally	k	Yes	7.81278281857758	N/A	-1	0.1422890625	0.0302643763028473	0.284578125	1	0.3	1	3887.05	2357.58392133851	TRUE	0.715421875	1	-0.356198923743532	8.16898174232111	0.3
10	a police officer	a terrorist	simple	1	21	1	simplified	impersonal	is	kill	is	kill	personally	k	Yes	7.98309894071089	N/A	-1	0.94316015625	0.0196864140471973	0.1136796875	1	0.2	1	3887.05	2357.58392133851	TRUE	0.8863203125	1	-0.156987962851852	8.14008690356274	0.2
10	a smartphone	a judge	simple	1	11	1	simplified	impersonal	is	destroy	is	kill	personally	d	No	7.86365126544865	N/A	-1	0.778909090909091	0.0369921556182536	0.442181818181818	-1	0.5	1	3887.05	2357.58392133851	FALSE	-0.557818181818182	1	-0.373151271985766	8.23680253743442	0.5
10	a billionaire	an addict	simple	1	17	1	simplified	impersonal	is	kill	is	kill	personally	k	Yes	8.06085575293432	N/A	-1	0.694354545454545	0.0435356724567781	0.611290909090909	1	0.7	1	3887.05	2357.58392133851	TRUE	0.388709090909091	1	-0.117780377222342	8.17863613015666	0.7
10	a rabid possum	an adult with a deadly contagious disease	simple	1	25	1	simplified	impersonal	is	kill	is	kill	personally	k	Yes	8.57451825803551	N/A	-1	0.776600746268657	0.0339841828106638	0.446798507462687	-1	0.5	0	3887.05	2357.58392133851	FALSE	-0.553201492537313	0	0.472798882939099	8.10171937509641	0.5
10	a thief	a life-saving antidote	simple	1	13	1	simplified	impersonal	is	kill	is	destroy	personally	d	No	8.15794350710504	N/A	-1	0.0725327868852459	0.0242828826524714	0.145065573770492	-1	0.2	1	3887.05	2357.58392133851	FALSE	-0.854934426229508	1	-0.0594244082457802	8.21736791535082	0.2
10	an elderly person	an astronaut	simple	1	32	1	simplified	impersonal	is	kill	is	kill	personally	d	No	8.47031120551611	N/A	-1	0.393838842975207	0.0423876598846921	0.787677685950413	1	0.8	0	3887.05	2357.58392133851	TRUE	0.212322314049587	0	0.435300367780735	8.03501083773537	0.8
10	a celebrity	a pedophile	simple	1	39	1	simplified	impersonal	is	kill	is	kill	personally	k	Yes	7.58375630070711	N/A	-1	0.907235042735043	0.0252592978113776	0.185529914529915	1	0.2	1	3887.05	2357.58392133851	TRUE	0.814470085470085	1	-0.385095269365523	7.96885157007263	0.2
10	a smartphone	a pedophile	simple	1	19	1	simplified	impersonal	is	destroy	is	kill	personally	d	No	8.3296580675694	N/A	-1	0.1393	0.0304994461624505	0.2786	1	0.3	0	3887.05	2357.58392133851	TRUE	0.7214	0	0.170319316659901	8.15933875090949	0.3
10	a homeless adult	a gang member	simple	1	2	1	simplified	impersonal	is	kill	is	kill	personally	k	Yes	7.81722278550817	N/A	-1	0.18555905511811	0.0336372509774461	0.37111811023622	1	0.4	1	3887.05	2357.58392133851	TRUE	0.62888188976378	1	-0.507605929764173	8.32482871527234	0.4
10	a smartphone	a soldier	simple	1	7	1	simplified	impersonal	is	destroy	is	kill	personally	d	No	8.17470288246946	N/A	-1	0.87525	0.0290441949976127	0.2495	-1	0.3	1	3887.05	2357.58392133851	FALSE	-0.7505	1	-0.101106900364993	8.27580978283445	0.3
10	a thief	a life-saving antidote	simple	1	15	1	simplified	impersonal	is	kill	is	destroy	personally	d	No	7.90211754627645	N/A	-1	0.0725327868852459	0.0242828826524714	0.145065573770492	-1	0.2	1	3887.05	2357.58392133851	FALSE	-0.854934426229508	1	-0.295861602713765	8.19797914899021	0.2
10	an astronaut	a mentor	simple	1	10	1	simplified	impersonal	is	kill	is	kill	personally	d	No	8.65869275368994	N/A	-1	0.552690476190476	0.0441101865575563	0.894619047619048	-1	0.9	1	3887.05	2357.58392133851	FALSE	-0.105380952380952	1	0.412155675436408	8.24653707825353	0.9
10	a mentor	a rapist	simple	1	9	1	simplified	impersonal	is	kill	is	kill	personally	k	Yes	7.95050243480885	N/A	-1	0.955375968992248	0.0173995969362512	0.0892480620155038	1	0.1	1	3887.05	2357.58392133851	TRUE	0.910751937984496	1	-0.305780688884002	8.25628312369285	0.1
10	a convict	an addict	simple	1	30	1	simplified	impersonal	is	kill	is	kill	personally	k	Yes	9.55236857416808	N/A	-1	0.403472222222222	0.0428472138999983	0.806944444444444	-1	0.9	0	3887.05	2357.58392133851	FALSE	-0.193055555555556	0	1.4983544009757	8.05401417319238	0.9
10	an assassin	a cockroach	simple	1	3	1	simplified	impersonal	is	kill	is	kill	personally	k	Yes	8.4898219946201	N/A	-1	0.569426229508197	0.04095824548846	0.861147540983606	1	0.9	1	3887.05	2357.58392133851	TRUE	0.138852459016394	1	0.174820238733497	8.31500175588661	0.9
100	a rapist	an assassin	simple	1	34	1	simplified	impersonal	is	kill	is	kill	personally	d	No	7.38523092306657	N/A	-1	0.376809160305344	0.0378201733093437	0.753618320610687	-1	0.8	1	3513.65	3278.6254902212	FALSE	-0.246381679389313	1	-0.553233092053451	7.93846401512002	0.8
100	a terrorist	a college student	simple	1	35	1	simplified	impersonal	is	kill	is	kill	personally	d	No	7.68340368105383	N/A	-1	0.959970085470085	0.0176207895888462	0.0800598290598291	-1	0.1	1	3513.65	3278.6254902212	FALSE	-0.919940170940171	1	-0.255060334066198	7.93846401512002	0.1
100	a college student	an elderly person	simple	1	4	1	simplified	impersonal	is	kill	is	kill	personally	k	Yes	7.9043348420851	N/A	-1	0.446760869565217	0.0442993741688754	0.893521739130435	-1	0.9	0	3513.65	3278.6254902212	FALSE	-0.106478260869565	0	-0.0360886982653037	7.9404235403504	0.9
100	a thief	a judge	simple	1	23	1	simplified	impersonal	is	kill	is	kill	personally	d	No	7.61184239958042	N/A	-1	0.848316666666667	0.0320801032091669	0.303366666666667	-1	0.4	1	3513.65	3278.6254902212	FALSE	-0.696633333333333	1	-0.326621615539607	7.93846401512002	0.4
100	an elderly person	a smartphone	simple	1	18	1	simplified	impersonal	is	kill	is	destroy	personally	k	Yes	7.7336835707759	N/A	-1	0.852177966101695	0.0317426686176899	0.29564406779661	1	0.3	1	3513.65	3278.6254902212	TRUE	0.70435593220339	1	-0.204780444344124	7.93846401512002	0.3
100	an elderly person	an adult	simple	1	3	1	simplified	impersonal	is	kill	is	kill	personally	d	No	7.89580837708318	N/A	-1	0.429715517241379	0.0428694686655005	0.859431034482759	1	0.9	0	3513.65	3278.6254902212	TRUE	0.140568965517241	0	-0.0608689045735442	7.95667728165673	0.9
100	an orphan	a life-saving antidote	simple	1	16	1	simplified	impersonal	is	kill	is	destroy	personally	d	No	8.85609105525229	N/A	-1	0.411159836065574	0.0413883002112607	0.822319672131148	-1	0.9	1	3513.65	3278.6254902212	FALSE	-0.177680327868852	1	0.917627040132261	7.93846401512003	0.9
100	a nun	a thief	simple	1	36	1	simplified	impersonal	is	kill	is	kill	personally	k	Yes	7.56941179245071	N/A	-1	0.843146341463415	0.0315859096799975	0.313707317073171	1	0.4	1	3513.65	3278.6254902212	TRUE	0.686292682926829	1	-0.369052222669312	7.93846401512002	0.4
100	an adult with a deadly contagious disease	a nun	simple	1	7	1	simplified	impersonal	is	kill	is	kill	personally	d	No	8.35819745992578	N/A	-1	0.674086466165414	0.0410759891711213	0.651827067669173	-1	0.7	1	3513.65	3278.6254902212	FALSE	-0.348172932330827	1	0.419731004524358	7.93846645540142	0.7
100	an adult with a deadly contagious disease	a convict	simple	1	32	1	simplified	impersonal	is	kill	is	kill	personally	d	No	8.14670905220332	N/A	-1	0.410834532374101	0.0399851524218008	0.821669064748201	1	0.9	0	3513.65	3278.6254902212	TRUE	0.178330935251799	0	0.208245037083294	7.93846401512002	0.9
100	an addict	a celebrity	simple	1	8	1	simplified	impersonal	is	kill	is	kill	personally	d	No	8.68457030082437	N/A	-1	0.642013636363636	0.0439744348496013	0.715972727272727	-1	0.8	1	3513.65	3278.6254902212	FALSE	-0.284027272727273	1	0.746106023159844	7.93846427766452	0.8
100	an orphan	a police officer	simple	1	5	1	simplified	impersonal	is	kill	is	kill	personally	d	No	9.84691720104773	N/A	-1	0.434078125	0.042666180078063	0.86815625	1	0.9	0	3513.65	3278.6254902212	TRUE	0.13184375	0	1.9082423649242	7.93867483612353	0.9
100	an orphan	a convict	simple	1	40	1	simplified	impersonal	is	kill	is	kill	personally	k	Yes	8.06934236681164	N/A	-1	0.1422890625	0.0302643763028473	0.284578125	1	0.3	1	3513.65	3278.6254902212	TRUE	0.715421875	1	0.130878351691612	7.93846401512002	0.3
100	a judge	a cockroach	simple	1	24	1	simplified	impersonal	is	kill	is	kill	personally	k	Yes	7.74413662762799	N/A	-1	0.972495726495726	0.014618636618766	0.0550085470085471	1	0.1	1	3513.65	3278.6254902212	TRUE	0.944991452991453	1	-0.194327387492033	7.93846401512002	0.1
100	a college student	a cockroach	simple	1	12	1	simplified	impersonal	is	kill	is	kill	personally	k	Yes	8.0870254706677	N/A	-1	0.986030434782609	0.00949818747349872	0.0279391304347827	1	0.1	1	3513.65	3278.6254902212	TRUE	0.972060869565217	1	0.148561455512501	7.9384640151552	0.1
100	a college student	an adult	simple	1	11	1	simplified	impersonal	is	kill	is	kill	personally	k	Yes	7.81681996576455	N/A	-1	0.522547008547009	0.0443517964182331	0.954905982905983	1	1	1	3513.65	3278.6254902212	TRUE	0.0450940170940169	1	-0.12164404968243	7.93846401544698	1
100	a pedophile	a mentor	simple	1	39	1	simplified	impersonal	is	kill	is	kill	personally	d	No	7.40000951716269	N/A	-1	0.965861111111111	0.0165075051911066	0.0682777777777779	-1	0.1	1	3513.65	3278.6254902212	FALSE	-0.931722222222222	1	-0.538454497957332	7.93846401512002	0.1
100	an elderly person	a rapist	simple	1	25	1	simplified	impersonal	is	kill	is	kill	personally	k	Yes	7.85748078694253	N/A	-1	0.0482741935483871	0.0188979943205681	0.0965483870967742	1	0.1	1	3513.65	3278.6254902212	TRUE	0.903451612903226	1	-0.0809832281774945	7.93846401512002	0.1
100	a terrorist	a gang member	simple	1	31	1	simplified	impersonal	is	kill	is	kill	personally	d	No	7.82684209815829	N/A	-1	0.689663865546219	0.0385966813727044	0.620672268907563	-1	0.7	1	3513.65	3278.6254902212	FALSE	-0.379327731092437	1	-0.111621916961731	7.93846401512002	0.7
100	a billionaire	a mentor	simple	1	13	1	simplified	impersonal	is	kill	is	kill	personally	d	No	7.96206730875367	N/A	-1	0.441786956521739	0.0467619467776302	0.883573913043478	-1	0.9	1	3513.65	3278.6254902212	FALSE	-0.116426086956522	1	0.0236032936298578	7.93846401512381	0.9
100	a nun	a college student	simple	1	2	1	simplified	impersonal	is	kill	is	kill	personally	d	No	8.11252776347864	N/A	-1	0.606892561983471	0.0434389872864491	0.786214876033058	-1	0.8	1	3513.65	3278.6254902212	FALSE	-0.213785123966942	1	0.00477627361986244	8.10775148985877	0.8
100	an elderly person	an assassin	simple	1	22	1	simplified	impersonal	is	kill	is	kill	personally	k	Yes	7.67229245562876	N/A	-1	0.0849262295081967	0.0250825605885065	0.169852459016393	1	0.2	1	3513.65	3278.6254902212	TRUE	0.830147540983607	1	-0.266171559491268	7.93846401512002	0.2
100	a rabid possum	a celebrity	simple	1	37	1	simplified	impersonal	is	kill	is	kill	personally	d	No	8.35090245169481	N/A	-1	0.895029914529915	0.0283846099629995	0.209940170940171	-1	0.3	1	3513.65	3278.6254902212	FALSE	-0.790059829059829	1	0.412438436574787	7.93846401512002	0.3
100	a celebrity	a pedophile	simple	1	27	1	simplified	impersonal	is	kill	is	kill	personally	k	Yes	7.37963215260955	N/A	-1	0.907235042735043	0.0252592978113776	0.185529914529915	1	0.2	1	3513.65	3278.6254902212	TRUE	0.814470085470085	1	-0.558831862510472	7.93846401512002	0.2
100	a life-saving antidote	a mentor	simple	1	1	1	simplified	impersonal	is	destroy	is	kill	personally	k	Yes	9.51192534959696	N/A	-1	0.349144	0.0395688888011903	0.698288	1	0.7	1	3513.65	3278.6254902212	TRUE	0.301712	1	-2.07778981682338e-05	9.51194612749512	0.7
100	an orphan	an adult with a deadly contagious disease	simple	1	9	1	simplified	impersonal	is	kill	is	kill	personally	k	Yes	7.9912539298402	N/A	-1	0.209081395348837	0.0351604102289025	0.418162790697674	1	0.5	1	3513.65	3278.6254902212	TRUE	0.581837209302326	1	0.0527898864735903	7.93846404336661	0.5
100	a life-saving antidote	a nun	simple	1	14	1	simplified	impersonal	is	destroy	is	kill	personally	k	Yes	8.45871626165726	N/A	-1	0.269464	0.039491876535717	0.538928	1	0.6	1	3513.65	3278.6254902212	TRUE	0.461072	1	0.520252246536831	7.93846401512043	0.6
100	an adult with a deadly contagious disease	a congressman	simple	1	20	1	simplified	impersonal	is	kill	is	kill	personally	d	No	7.24779258176785	N/A	-1	0.590417355371901	0.0426087286755071	0.819165289256198	-1	0.9	1	3513.65	3278.6254902212	FALSE	-0.180834710743802	1	-0.690671433352178	7.93846401512002	0.9
100	a rabid possum	a terrorist	simple	1	19	1	simplified	impersonal	is	kill	is	kill	personally	k	Yes	8.64979915596426	N/A	-1	0.422790322580645	0.0410965977367719	0.84558064516129	1	0.9	1	3513.65	3278.6254902212	TRUE	0.15441935483871	1	0.711335140844236	7.93846401512002	0.9
100	an orphan	a rapist	simple	1	29	1	simplified	impersonal	is	kill	is	kill	personally	k	Yes	7.48941208350872	N/A	-1	0.0397698412698413	0.016757758132585	0.0795396825396826	1	0.1	1	3513.65	3278.6254902212	TRUE	0.920460317460317	1	-0.449051931611305	7.93846401512002	0.1
100	a nun	a mentor	simple	1	26	1	simplified	impersonal	is	kill	is	kill	personally	d	No	7.60589000105312	N/A	-1	0.601492	0.0424672273806685	0.797016	-1	0.8	1	3513.65	3278.6254902212	FALSE	-0.202984	1	-0.332574014066902	7.93846401512002	0.8
100	an adult with a deadly contagious disease	an assassin	simple	1	17	1	simplified	impersonal	is	kill	is	kill	personally	d	No	7.99564360428727	N/A	-1	0.703007462686567	0.0373453847031057	0.593985074626866	1	0.6	0	3513.65	3278.6254902212	TRUE	0.406014925373134	0	0.0571795891672462	7.93846401512002	0.6
100	a thief	a gang member	simple	1	15	1	simplified	impersonal	is	kill	is	kill	personally	k	Yes	8.25218543600333	N/A	-1	0.531546218487395	0.0426380366568949	0.93690756302521	-1	1	0	3513.65	3278.6254902212	FALSE	-0.0630924369747899	0	0.313721420883261	7.93846401512007	1
100	a soldier	a pedophile	simple	1	28	1	simplified	impersonal	is	kill	is	kill	personally	k	Yes	7.44833386089748	N/A	-1	0.031048	0.0153811012048642	0.062096	1	0.1	1	3513.65	3278.6254902212	TRUE	0.937904	1	-0.490130154222548	7.93846401512002	0.1
100	an addict	an adult	simple	1	21	1	simplified	impersonal	is	kill	is	kill	personally	d	No	7.9035962896143	N/A	-1	0.249112068965517	0.0399747183345918	0.498224137931034	-1	0.5	1	3513.65	3278.6254902212	FALSE	-0.501775862068966	1	-0.0348677255057233	7.93846401512002	0.5
100	a pedophile	an assassin	simple	1	10	1	simplified	impersonal	is	kill	is	kill	personally	d	No	8.12533508671429	N/A	-1	0.35796875	0.037146122600724	0.7159375	-1	0.8	1	3513.65	3278.6254902212	FALSE	-0.2840625	1	0.186871068555279	7.93846401815901	0.8
100	a pedophile	an orphan	simple	1	38	1	simplified	impersonal	is	kill	is	kill	personally	d	No	7.1777824161952	N/A	-1	0.0327967479674797	0.0150291348165734	0.0655934959349593	-1	0.1	1	3513.65	3278.6254902212	FALSE	-0.934406504065041	1	-0.760681598924827	7.93846401512002	0.1
100	a thief	an adult with a deadly contagious disease	simple	1	33	1	simplified	impersonal	is	kill	is	kill	personally	k	Yes	7.61184239958042	N/A	-1	0.338265384615385	0.0386563172601653	0.676530769230769	-1	0.7	0	3513.65	3278.6254902212	FALSE	-0.323469230769231	0	-0.326621615539607	7.93846401512002	0.7
101	a gang member	a police officer	simple	1	10	1	simplified	impersonal	is	kill	is	kill	personally	d	Yes	8.71588010229646	N/A	-1	0.15042578125	0.0310331917629791	0.3008515625	-1	0.4	0	4118.5	3052.97563966866	FALSE	-0.6991484375	0	0.450155232010301	8.26572487028615	0.4
101	a mentor	a rapist	simple	1	28	1	simplified	impersonal	is	kill	is	kill	personally	d	Yes	7.45066079621154	N/A	-1	0.955375968992248	0.0173995969362512	0.0892480620155038	1	0.1	1	4118.5	3052.97563966866	TRUE	0.910751937984496	1	-0.501264710882911	7.95192550709445	0.1
101	a nun	a celebrity	simple	1	1	1	simplified	impersonal	is	kill	is	kill	personally	d	Yes	9.07280095795412	N/A	-1	0.458625	0.0446234943674416	0.91725	1	1	1	4118.5	3052.97563966866	TRUE	0.08275	1	0.234011307393668	8.83878965056045	1
101	an orphan	an adult	simple	1	5	1	simplified	impersonal	is	kill	is	kill	personally	d	Yes	8.04173471148754	N/A	-1	0.416021186440678	0.0439968568211195	0.832042372881356	1	0.9	1	4118.5	3052.97563966866	TRUE	0.167957627118644	1	-0.47634322506079	8.51807793654833	0.9
101	a life-saving antidote	a gang member	simple	1	40	1	simplified	impersonal	is	destroy	is	kill	personally	d	Yes	7.9229859587112	N/A	-1	0.097827868852459	0.0270885167236823	0.195655737704918	1	0.2	1	4118.5	3052.97563966866	TRUE	0.804344262295082	1	0.0118931702542993	7.9110927884569	0.2
101	a billionaire	a celebrity	simple	1	35	1	simplified	impersonal	is	kill	is	kill	personally	k	No	8.15593633797239	N/A	-1	0.557128571428571	0.0483242954193562	0.885742857142857	1	0.9	0	4118.5	3052.97563966866	TRUE	0.114257142857143	0	0.233616752151909	7.92231958582048	0.9
101	an astronaut	an adult with a deadly contagious disease	simple	1	26	1	simplified	impersonal	is	kill	is	kill	personally	d	Yes	7.88344635413774	N/A	-1	0.278033582089552	0.0364116889825956	0.556067164179105	1	0.6	1	4118.5	3052.97563966866	TRUE	0.443932835820895	1	-0.0817027443756757	7.96514909851342	0.6
101	an orphan	a terrorist	simple	1	14	1	simplified	impersonal	is	kill	is	kill	personally	d	Yes	7.25841215059531	N/A	-1	0.0344789915966387	0.01675172696323	0.0689579831932773	1	0.1	1	4118.5	3052.97563966866	TRUE	0.931042016806723	1	-0.881249320820739	8.13966147141605	0.1
101	an adult	a judge	simple	1	27	1	simplified	impersonal	is	kill	is	kill	personally	d	Yes	7.76895604453833	N/A	-1	0.433260504201681	0.0436336776447661	0.866521008403361	1	0.9	1	4118.5	3052.97563966866	TRUE	0.133478991596639	1	-0.18923857587761	7.95819462041594	0.9
101	an addict	a gang member	simple	1	37	1	simplified	impersonal	is	kill	is	kill	personally	k	No	8.04558828080353	N/A	-1	0.348239316239316	0.0432900858194097	0.696478632478633	1	0.7	0	4118.5	3052.97563966866	TRUE	0.303521367521367	0	0.128466543414241	7.91712173738929	0.7
101	a congressman	an addict	simple	1	15	1	simplified	impersonal	is	kill	is	kill	personally	k	No	8.62353322718756	N/A	-1	0.593779816513761	0.0454825651374978	0.812440366972477	1	0.9	0	4118.5	3052.97563966866	TRUE	0.187559633027523	0	0.50802445229515	8.11550877489241	0.9
101	a pedophile	an orphan	simple	1	22	1	simplified	impersonal	is	kill	is	kill	personally	k	No	7.26332961747684	N/A	-1	0.0327967479674797	0.0150291348165734	0.0655934959349593	-1	0.1	1	4118.5	3052.97563966866	FALSE	-0.934406504065041	1	-0.738117918582768	8.0014475360596	0.1
101	a cockroach	a thief	simple	1	21	1	simplified	impersonal	is	kill	is	kill	personally	k	No	8.4755375161474	N/A	-1	0.642260683760684	0.043284938389608	0.715478632478632	-1	0.8	1	4118.5	3052.97563966866	FALSE	-0.284521367521368	1	0.462406918645213	8.01313059750219	0.8
101	a congressman	a smartphone	simple	1	38	1	simplified	impersonal	is	kill	is	destroy	personally	d	Yes	8.16961956172385	N/A	-1	0.650089285714286	0.0447605876484571	0.699821428571429	1	0.7	1	4118.5	3052.97563966866	TRUE	0.300178571428571	1	0.254719199367156	7.91490036235669	0.7
101	an adult	an orphan	simple	1	16	1	simplified	impersonal	is	kill	is	kill	personally	d	Yes	7.78405700263993	N/A	-1	0.416021186440678	0.0439968568211195	0.832042372881356	-1	0.9	0	4118.5	3052.97563966866	FALSE	-0.167957627118644	0	-0.309679327303484	8.09373632994341	0.9
101	a college student	a mentor	simple	1	25	1	simplified	impersonal	is	kill	is	kill	personally	k	No	7.88645727097769	N/A	-1	0.5053375	0.0447674307448438	0.989325	1	1	0	4118.5	3052.97563966866	TRUE	0.010675	0	-0.0864065972532275	7.97286386823092	1
101	a billionaire	a celebrity	simple	1	3	1	simplified	impersonal	is	kill	is	kill	personally	k	No	8.3478273457825	N/A	-1	0.557128571428571	0.0483242954193562	0.885742857142857	1	0.9	0	4118.5	3052.97563966866	TRUE	0.114257142857143	0	-0.314028829833305	8.6618561756158	0.9
101	an orphan	a mentor	simple	1	2	1	simplified	impersonal	is	kill	is	kill	personally	d	Yes	8.79573360595074	N/A	-1	0.424704918032787	0.043504498213705	0.849409836065574	1	0.9	1	4118.5	3052.97563966866	TRUE	0.150590163934426	1	0.049995830423839	8.7457377755269	0.9
101	an adult	a nun	simple	1	20	1	simplified	impersonal	is	kill	is	kill	personally	d	Yes	8.41516046585109	N/A	-1	0.418188524590164	0.0416680398258753	0.836377049180328	1	0.9	1	4118.5	3052.97563966866	TRUE	0.163622950819672	1	0.389069567466256	8.02609089838483	0.9
101	a celebrity	an adult with a deadly contagious disease	simple	1	23	1	simplified	impersonal	is	kill	is	kill	personally	d	Yes	8.18785544369562	N/A	-1	0.628113821138211	0.0433966101923486	0.743772357723577	1	0.8	1	4118.5	3052.97563966866	TRUE	0.256227642276423	1	0.196939601761583	7.99091584193404	0.8
101	a rabid possum	a soldier	simple	1	11	1	simplified	impersonal	is	kill	is	kill	personally	k	No	7.78322401633604	N/A	-1	0.983396	0.0108454971674335	0.0332080000000001	-1	0.1	1	4118.5	3052.97563966866	FALSE	-0.966792	1	-0.445924592075494	8.22914860841153	0.1
101	a congressman	a college student	simple	1	13	1	simplified	impersonal	is	kill	is	kill	personally	k	No	7.29776828253138	N/A	-1	0.674633027522936	0.0449122068529669	0.650733944954129	-1	0.7	1	4118.5	3052.97563966866	FALSE	-0.349266055045871	1	-0.868686355693865	8.16645463822524	0.7
101	a terrorist	an orphan	simple	1	9	1	simplified	impersonal	is	kill	is	kill	personally	k	No	8.40447232135212	N/A	-1	0.0344789915966387	0.01675172696323	0.0689579831932773	-1	0.1	1	4118.5	3052.97563966866	FALSE	-0.931042016806723	1	0.0981725245891294	8.30629979676299	0.1
101	a cockroach	an astronaut	simple	1	24	1	simplified	impersonal	is	kill	is	kill	personally	k	No	7.35436233042148	N/A	-1	0.975553719008264	0.0127380324047799	0.048892561983471	-1	0.1	1	4118.5	3052.97563966866	FALSE	-0.951107438016529	1	-0.627059717296079	7.98142204771756	0.1
101	an orphan	a rapist	simple	1	4	1	simplified	impersonal	is	kill	is	kill	personally	d	Yes	8.57546209954021	N/A	-1	0.0397698412698413	0.016757758132585	0.0795396825396826	1	0.1	1	4118.5	3052.97563966866	TRUE	0.920460317460317	1	-0.0107790194084618	8.58624111894867	0.1
101	a mentor	a homeless adult	simple	1	36	1	simplified	impersonal	is	kill	is	kill	personally	d	Yes	7.81075811652936	N/A	-1	0.396565384615385	0.0397317680389132	0.793130769230769	1	0.8	1	4118.5	3052.97563966866	TRUE	0.206869230769231	1	-0.108827845578518	7.91958596210787	0.8
101	a billionaire	a convict	simple	1	8	1	simplified	impersonal	is	kill	is	kill	personally	k	No	9.65233025476672	N/A	-1	0.758987603305785	0.0371110342251927	0.48202479338843	1	0.5	0	4118.5	3052.97563966866	TRUE	0.51797520661157	0	1.30101971676823	8.35131053799849	0.5
101	a terrorist	a homeless adult	simple	1	18	1	simplified	impersonal	is	kill	is	kill	personally	k	No	8.19118600464279	N/A	-1	0.921385826771654	0.0228287389178842	0.157228346456693	-1	0.2	1	4118.5	3052.97563966866	FALSE	-0.842771653543307	1	0.134768989045774	8.05641701559701	0.2
101	a homeless adult	an elderly person	simple	1	17	1	simplified	impersonal	is	kill	is	kill	personally	d	Yes	9.60434000197507	N/A	-1	0.34888	0.0404506347768963	0.69776	-1	0.7	0	4118.5	3052.97563966866	FALSE	-0.30224	0	1.5302304395271	8.07410956244797	0.7
101	a soldier	an addict	simple	1	19	1	simplified	impersonal	is	kill	is	kill	personally	d	Yes	7.84463264446468	N/A	-1	0.823618644067797	0.033596374904528	0.352762711864407	1	0.4	1	4118.5	3052.97563966866	TRUE	0.647237288135593	1	-0.195835427214491	8.04046807167917	0.4
101	an assassin	an adult with a deadly contagious disease	simple	1	31	1	simplified	impersonal	is	kill	is	kill	personally	d	Yes	8.32845106681936	N/A	-1	0.703007462686567	0.0373453847031057	0.593985074626866	-1	0.6	0	4118.5	3052.97563966866	FALSE	-0.406014925373134	0	0.391863513192206	7.93658755362715	0.6
101	a thief	a homeless adult	simple	1	34	1	simplified	impersonal	is	kill	is	kill	personally	k	No	7.9168074909376	N/A	-1	0.8327578125	0.0308603188685306	0.334484375	-1	0.4	1	4118.5	3052.97563966866	FALSE	-0.665515625	1	-0.0085445693750712	7.92535206031267	0.4
101	a thief	a rapist	simple	1	39	1	simplified	impersonal	is	kill	is	kill	personally	d	Yes	7.5963923040642	N/A	-1	0.317369047619048	0.038302519048093	0.634738095238095	1	0.7	1	4118.5	3052.97563966866	TRUE	0.365261904761905	1	-0.316505600075838	7.91289790414003	0.7
101	a cockroach	an orphan	simple	1	29	1	simplified	impersonal	is	kill	is	kill	personally	k	No	7.54960916515453	N/A	-1	0.987119658119658	0.00981891252785444	0.0257606837606839	-1	0.1	1	4118.5	3052.97563966866	FALSE	-0.974239316239316	1	-0.396665050601178	7.94627421575571	0.1
101	a pedophile	a nun	simple	1	6	1	simplified	impersonal	is	kill	is	kill	personally	k	No	7.96623977655947	N/A	-1	0.949342519685039	0.0189281354243548	0.101314960629921	-1	0.2	1	4118.5	3052.97563966866	FALSE	-0.898685039370079	1	-0.4903924686182	8.45663224517767	0.2
101	a smartphone	an assassin	simple	1	32	1	simplified	impersonal	is	destroy	is	kill	personally	d	Yes	8.13622555490846	N/A	-1	0.298688	0.0395016840025718	0.597376	1	0.6	1	4118.5	3052.97563966866	TRUE	0.402624	1	0.203777735189743	7.93244781971872	0.6
101	a homeless adult	a billionaire	simple	1	33	1	simplified	impersonal	is	kill	is	kill	personally	d	Yes	8.62461158818351	N/A	-1	0.525508333333333	0.0447761792214355	0.948983333333333	-1	1	0	4118.5	3052.97563966866	FALSE	-0.051016666666667	0	0.695895531025412	7.92871605715809	1
101	an adult	a congressman	simple	1	30	1	simplified	impersonal	is	kill	is	kill	personally	d	Yes	7.54486106865846	N/A	-1	0.346709090909091	0.045252948157222	0.693418181818182	1	0.7	1	4118.5	3052.97563966866	TRUE	0.306581818181818	1	-0.396318791299625	7.94117985995808	0.7
101	a rabid possum	an assassin	simple	1	7	1	simplified	impersonal	is	kill	is	kill	personally	k	No	8.56978564153541	N/A	-1	0.541968992248062	0.0419414067274091	0.916062015503876	-1	1	1	4118.5	3052.97563966866	FALSE	-0.083937984496124	1	0.168543606366462	8.40124203516894	1
102	an orphan	a police officer	simple	1	6	1	simplified	impersonal	is	kill	is	kill	personally	k	Yes	9.0980671294934	N/A	-1	0.434078125	0.042666180078063	0.86815625	1	0.9	1	7487.025	5638.66258687197	TRUE	0.13184375	1	-0.163687654031818	9.26175478352522	0.9
102	a pedophile	an adult	simple	1	21	1	simplified	impersonal	is	kill	is	kill	personally	d	No	8.37816098272068	N/A	-1	0.0402642276422764	0.0176137558186894	0.0805284552845529	-1	0.1	1	7487.025	5638.66258687197	FALSE	-0.919471544715447	1	-0.200414381626166	8.57857536434684	0.1
102	a college student	a soldier	simple	1	8	1	simplified	impersonal	is	kill	is	kill	personally	k	Yes	9.38513366234935	N/A	-1	0.402823529411765	0.0440041154844106	0.805647058823529	-1	0.9	0	7487.025	5638.66258687197	FALSE	-0.194352941176471	0	0.245960299514651	9.1391733628347	0.9
102	a life-saving antidote	a rabid possum	simple	1	25	1	simplified	impersonal	is	destroy	is	kill	personally	k	Yes	8.51639287124547	N/A	-1	0.988318897637795	0.00894756052211203	0.0233622047244093	1	0.1	1	7487.025	5638.66258687197	TRUE	0.976637795275591	1	0.0497504214238784	8.46664244982159	0.1
102	a nun	an adult	simple	1	27	1	simplified	impersonal	is	kill	is	kill	personally	d	No	8.73149779406324	N/A	-1	0.418188524590164	0.0416680398258753	0.836377049180328	-1	0.9	1	7487.025	5638.66258687197	FALSE	-0.163622950819672	1	0.313101625330152	8.41839616873309	0.9
102	a soldier	an orphan	simple	1	1	1	simplified	impersonal	is	kill	is	kill	personally	d	No	9.37551576993517	N/A	-1	0.537395833333333	0.0452566656672262	0.925208333333333	1	1	0	7487.025	5638.66258687197	TRUE	0.074791666666667	0	-0.250890028188891	9.62640579812406	1
102	a rapist	a congressman	simple	1	11	1	simplified	impersonal	is	kill	is	kill	personally	d	No	8.62532985002082	N/A	-1	0.872868644067797	0.0296919007172673	0.254262711864407	-1	0.3	1	7487.025	5638.66258687197	FALSE	-0.745737288135593	1	-0.351120321164291	8.97645017118511	0.3
102	a smartphone	a rapist	simple	1	32	1	simplified	impersonal	is	destroy	is	kill	personally	k	Yes	8.75273950944749	N/A	-1	0.171795275590551	0.032979738451044	0.343590551181102	1	0.4	1	7487.025	5638.66258687197	TRUE	0.656409448818898	1	0.436136954267678	8.31660255517981	0.4
102	a congressman	a nun	simple	1	13	1	simplified	impersonal	is	kill	is	kill	personally	d	No	8.78477459216102	N/A	-1	0.410649122807018	0.0461970497803229	0.821298245614035	-1	0.9	1	7487.025	5638.66258687197	FALSE	-0.178701754385965	1	-0.0957673179468994	8.88054191010792	0.9
102	an addict	a police officer	simple	1	9	1	simplified	impersonal	is	kill	is	kill	personally	d	No	8.65765054411149	N/A	-1	0.755444444444444	0.0373379061935243	0.489111111111111	-1	0.5	1	7487.025	5638.66258687197	FALSE	-0.510888888888889	1	-0.424599091749508	9.082249635861	0.5
102	a rapist	an orphan	simple	1	22	1	simplified	impersonal	is	kill	is	kill	personally	d	No	8.3719361787591	N/A	-1	0.0397698412698413	0.016757758132585	0.0795396825396826	-1	0.1	1	7487.025	5638.66258687197	FALSE	-0.920460317460317	1	-0.176563545459583	8.54849972421868	0.1
102	a college student	a smartphone	simple	1	29	1	simplified	impersonal	is	kill	is	destroy	personally	k	Yes	8.05452260953729	N/A	-1	0.846210084033613	0.0324644197733429	0.307579831932773	1	0.4	1	7487.025	5638.66258687197	TRUE	0.692420168067227	1	-0.320137828237099	8.37466043777439	0.4
102	a homeless adult	a rapist	simple	1	26	1	simplified	impersonal	is	kill	is	kill	personally	k	Yes	8.26642147298455	N/A	-1	0.92284328358209	0.0211262489472413	0.154313432835821	1	0.2	1	7487.025	5638.66258687197	TRUE	0.845686567164179	1	-0.175506013375848	8.4419274863604	0.2
102	an addict	a nun	simple	1	30	1	simplified	impersonal	is	kill	is	kill	personally	d	No	8.37216741936598	N/A	-1	0.69385	0.0399394735874088	0.6123	-1	0.7	1	7487.025	5638.66258687197	FALSE	-0.3877	1	0.017816754427173	8.35435066493881	0.7
102	an adult	an orphan	simple	1	38	1	simplified	impersonal	is	kill	is	kill	personally	d	No	7.99564360428727	N/A	-1	0.416021186440678	0.0439968568211195	0.832042372881356	-1	0.9	1	7487.025	5638.66258687197	FALSE	-0.167957627118644	1	-0.227600182346907	8.22324378663418	0.9
102	a terrorist	a rabid possum	simple	1	4	1	simplified	impersonal	is	kill	is	kill	personally	d	No	9.72871741189501	N/A	-1	0.422790322580645	0.0410965977367719	0.84558064516129	-1	0.9	1	7487.025	5638.66258687197	FALSE	-0.15441935483871	1	0.331739149780921	9.39697826211409	0.9
102	a nun	a convict	simple	1	2	1	simplified	impersonal	is	kill	is	kill	personally	k	Yes	9.97375960552146	N/A	-1	0.229685606060606	0.0348702947596602	0.459371212121212	1	0.5	1	7487.025	5638.66258687197	TRUE	0.540628787878788	1	0.427612007151756	9.5461475983697	0.5
102	an adult	a college student	simple	1	31	1	simplified	impersonal	is	kill	is	kill	personally	d	No	8.56464913257253	N/A	-1	0.522547008547009	0.0443517964182331	0.954905982905983	-1	1	1	7487.025	5638.66258687197	FALSE	-0.0450940170940169	1	0.229635567455185	8.33501356511735	1
102	a life-saving antidote	a celebrity	simple	1	35	1	simplified	impersonal	is	destroy	is	kill	personally	k	Yes	8.3485378253861	N/A	-1	0.251382608695652	0.0387220706578808	0.502765217391304	1	0.6	1	7487.025	5638.66258687197	TRUE	0.497234782608696	1	0.0820447636688417	8.26649306171726	0.6
102	an assassin	a celebrity	simple	1	39	1	simplified	impersonal	is	kill	is	kill	personally	d	No	8.30276158070405	N/A	-1	0.819038461538461	0.0362089063579861	0.361923076923077	-1	0.4	1	7487.025	5638.66258687197	FALSE	-0.638076923076923	1	0.0925759402306596	8.21018564047339	0.4
102	an astronaut	a thief	simple	1	15	1	simplified	impersonal	is	kill	is	kill	personally	d	No	10.1407706674041	N/A	-1	0.13008064516129	0.0300157703876853	0.260161290322581	1	0.3	0	7487.025	5638.66258687197	TRUE	0.739838709677419	0	1.34717054448787	8.79360012291618	0.3
102	a rabid possum	an addict	simple	1	14	1	simplified	impersonal	is	kill	is	kill	personally	d	No	8.31825432879885	N/A	-1	0.808901639344262	0.0343832674942287	0.382196721311475	-1	0.4	1	7487.025	5638.66258687197	FALSE	-0.617803278688525	1	-0.517750198422448	8.83600452722129	0.4
102	a mentor	a cockroach	simple	1	10	1	simplified	impersonal	is	kill	is	kill	personally	k	Yes	9.05555615817532	N/A	-1	0.986491666666667	0.00949289447961774	0.0270166666666667	1	0.1	1	7487.025	5638.66258687197	TRUE	0.972983333333333	1	0.0275040655173129	9.028052092658	0.1
102	a mentor	an assassin	simple	1	28	1	simplified	impersonal	is	kill	is	kill	personally	k	Yes	7.87739718635329	N/A	-1	0.910877952755906	0.023735154595074	0.178244094488189	1	0.2	1	7487.025	5638.66258687197	TRUE	0.821755905511811	1	-0.518594623573168	8.39599180992646	0.2
102	a pedophile	a smartphone	simple	1	19	1	simplified	impersonal	is	kill	is	destroy	personally	k	Yes	8.2220164372022	N/A	-1	0.1393	0.0304994461624505	0.2786	-1	0.3	0	7487.025	5638.66258687197	FALSE	-0.7214	0	-0.421324797039128	8.64334123424132	0.3
102	a police officer	a terrorist	simple	1	36	1	simplified	impersonal	is	kill	is	kill	personally	k	Yes	8.22657347497711	N/A	-1	0.94316015625	0.0196864140471973	0.1136796875	1	0.2	1	7487.025	5638.66258687197	TRUE	0.8863203125	1	-0.024790151890187	8.2513636268673	0.2
102	a gang member	an addict	simple	1	7	1	simplified	impersonal	is	kill	is	kill	personally	d	No	9.42690231192484	N/A	-1	0.348239316239316	0.0432900858194097	0.696478632478633	-1	0.7	1	7487.025	5638.66258687197	FALSE	-0.303521367521367	1	0.227941908920466	9.19896040300437	0.7
102	a college student	an adult with a deadly contagious disease	simple	1	20	1	simplified	impersonal	is	kill	is	kill	personally	k	Yes	8.321664807135	N/A	-1	0.75182421875	0.0368129038711905	0.4963515625	1	0.5	1	7487.025	5638.66258687197	TRUE	0.5036484375	1	-0.28849902831287	8.61016383544787	0.5
102	a smartphone	an elderly person	simple	1	37	1	simplified	impersonal	is	destroy	is	kill	personally	d	No	7.84031298332016	N/A	-1	0.852177966101695	0.0317426686176899	0.29564406779661	-1	0.3	1	7487.025	5638.66258687197	FALSE	-0.70435593220339	1	-0.396645785634435	8.2369587689546	0.3
102	a thief	a terrorist	simple	1	34	1	simplified	impersonal	is	kill	is	kill	personally	k	Yes	7.93056585423396	N/A	-1	0.346827731092437	0.0386345676821959	0.693655462184874	1	0.7	1	7487.025	5638.66258687197	TRUE	0.306344537815126	1	-0.351817666123443	8.28238352035741	0.7
102	a mentor	a rapist	simple	1	17	1	simplified	impersonal	is	kill	is	kill	personally	k	Yes	8.05102220819068	N/A	-1	0.955375968992248	0.0173995969362512	0.0892480620155038	1	0.1	1	7487.025	5638.66258687197	TRUE	0.910751937984496	1	-0.663764324788671	8.71478653297935	0.1
102	a soldier	a nun	simple	1	18	1	simplified	impersonal	is	kill	is	kill	personally	d	No	9.44533343964754	N/A	-1	0.308661290322581	0.0395741053504535	0.617322580645161	1	0.7	0	7487.025	5638.66258687197	TRUE	0.382677419354839	0	0.767145954469306	8.67818748517823	0.7
102	a billionaire	an elderly person	simple	1	16	1	simplified	impersonal	is	kill	is	kill	personally	d	No	8.3020178097512	N/A	-1	0.392954545454545	0.0436002472478364	0.785909090909091	-1	0.8	1	7487.025	5638.66258687197	FALSE	-0.214090909090909	1	-0.451208735106997	8.7532265448582	0.8
102	a gang member	a life-saving antidote	simple	1	33	1	simplified	impersonal	is	kill	is	destroy	personally	d	No	8.44031214708028	N/A	-1	0.097827868852459	0.0270885167236823	0.195655737704918	-1	0.2	1	7487.025	5638.66258687197	FALSE	-0.804344262295082	1	0.141238864131035	8.29907328294924	0.2
102	a judge	a rapist	simple	1	5	1	simplified	impersonal	is	kill	is	kill	personally	d	No	9.07669468710627	N/A	-1	0.937186507936508	0.0216142114701964	0.125626984126984	1	0.2	0	7487.025	5638.66258687197	TRUE	0.874373015873016	0	-0.251013089137867	9.32770777624413	0.2
102	a mentor	a life-saving antidote	simple	1	24	1	simplified	impersonal	is	kill	is	destroy	personally	k	Yes	9.96899435473825	N/A	-1	0.349144	0.0395688888011903	0.698288	-1	0.7	0	7487.025	5638.66258687197	FALSE	-0.301712	0	1.4763937572021	8.49260059753614	0.7
102	an orphan	an adult with a deadly contagious disease	simple	1	12	1	simplified	impersonal	is	kill	is	kill	personally	k	Yes	8.63923381732526	N/A	-1	0.209081395348837	0.0351604102289025	0.418162790697674	1	0.5	1	7487.025	5638.66258687197	TRUE	0.581837209302326	1	-0.288085744936829	8.92731956226209	0.5
102	a judge	a thief	simple	1	23	1	simplified	impersonal	is	kill	is	kill	personally	d	No	8.86587628542542	N/A	-1	0.848316666666667	0.0320801032091669	0.303366666666667	1	0.4	0	7487.025	5638.66258687197	TRUE	0.696633333333333	0	0.346011822667345	8.51986446275807	0.4
103	an assassin	a terrorist	simple	1	36	1	simplified	impersonal	is	kill	is	kill	personally	d	Yes	8.74687531957003	N/A	-1	0.406971774193548	0.0399824930957364	0.813943548387097	1	0.9	1	3028.45	2515.96310712424	TRUE	0.186056451612903	1	0.656298576705554	8.09057674286448	0.9
103	a life-saving antidote	a homeless adult	simple	1	24	1	simplified	impersonal	is	destroy	is	kill	personally	k	No	7.38025578842646	N/A	-1	0.259876923076923	0.0374640372441493	0.519753846153846	1	0.6	0	3028.45	2515.96310712424	TRUE	0.480246153846154	0	-0.68100395600811	8.06125974443457	0.6
103	a celebrity	a gang member	simple	1	27	1	simplified	impersonal	is	kill	is	kill	personally	d	Yes	8.04686951095958	N/A	-1	0.763133928571429	0.0383290453791085	0.473732142857143	1	0.5	1	3028.45	2515.96310712424	TRUE	0.526267857142857	1	-0.0217095086692254	8.0685790196288	0.5
103	a rapist	a soldier	simple	1	33	1	simplified	impersonal	is	kill	is	kill	personally	k	No	7.72709448477984	N/A	-1	0.0383937007874016	0.0166626194104079	0.0767874015748031	-1	0.1	1	3028.45	2515.96310712424	FALSE	-0.923212598425197	1	-0.356143028027271	8.08323751280711	0.1
103	a terrorist	an addict	simple	1	18	1	simplified	impersonal	is	kill	is	kill	personally	d	Yes	8.01102337918644	N/A	-1	0.186478632478632	0.0345786908435411	0.372957264957265	-1	0.4	0	3028.45	2515.96310712424	FALSE	-0.627042735042735	0	-0.0356177275073524	8.04664110669379	0.4
103	a billionaire	an orphan	simple	1	31	1	simplified	impersonal	is	kill	is	kill	personally	k	No	7.92479591395644	N/A	-1	0.380700892857143	0.0445485273162883	0.761401785714286	-1	0.8	1	3028.45	2515.96310712424	FALSE	-0.238598214285714	1	-0.15355247788457	8.07834839184101	0.8
103	a gang member	a homeless adult	simple	1	32	1	simplified	impersonal	is	kill	is	kill	personally	k	No	8.04044688130311	N/A	-1	0.18555905511811	0.0336372509774461	0.37111811023622	-1	0.4	1	3028.45	2515.96310712424	FALSE	-0.62888188976378	1	-0.0403457012629236	8.08079258256603	0.4
103	a cockroach	an elderly person	simple	1	16	1	simplified	impersonal	is	kill	is	kill	personally	k	No	8.95234654322623	N/A	-1	0.975282608695652	0.0137406182207404	0.0494347826086956	-1	0.1	1	3028.45	2515.96310712424	FALSE	-0.950565217391304	1	0.910572422276591	8.04177412094964	0.1
103	a smartphone	a homeless adult	simple	1	34	1	simplified	impersonal	is	destroy	is	kill	personally	k	No	7.95577578153419	N/A	-1	0.769472868217054	0.0374794230601193	0.461054263565891	-1	0.5	1	3028.45	2515.96310712424	FALSE	-0.538945736434109	1	-0.129907401253804	8.08568318278799	0.5
103	a police officer	an astronaut	simple	1	6	1	simplified	impersonal	is	kill	is	kill	personally	d	Yes	6.93049476595163	N/A	-1	0.551052631578947	0.0426658443937738	0.897894736842105	1	0.9	1	3028.45	2515.96310712424	TRUE	0.102105263157895	1	-1.08698854739956	8.01748331335119	0.9
103	a college student	a rapist	simple	1	11	1	simplified	impersonal	is	kill	is	kill	personally	d	Yes	7.58731050602262	N/A	-1	0.955165322580645	0.0184868627503233	0.0896693548387097	1	0.1	1	3028.45	2515.96310712424	TRUE	0.91033064516129	1	-0.442309025714434	8.02961953173705	0.1
103	a rapist	a smartphone	simple	1	22	1	simplified	impersonal	is	kill	is	destroy	personally	d	Yes	7.8935720735049	N/A	-1	0.171795275590551	0.032979738451044	0.343590551181102	-1	0.4	0	3028.45	2515.96310712424	FALSE	-0.656409448818898	0	-0.162811843148125	8.05638391665303	0.4
103	a thief	a homeless adult	simple	1	37	1	simplified	impersonal	is	kill	is	kill	personally	k	No	8.36660283278374	N/A	-1	0.8327578125	0.0308603188685306	0.334484375	-1	0.4	1	3028.45	2515.96310712424	FALSE	-0.665515625	1	0.273578199375816	8.09302463340792	0.4
103	a mentor	a soldier	simple	1	1	1	simplified	impersonal	is	kill	is	kill	personally	d	Yes	7.70706265537047	N/A	-1	0.397934959349593	0.0431233324361394	0.795869918699187	-1	0.8	0	3028.45	2515.96310712424	FALSE	-0.204130081300813	0	-0.298302782655329	8.0053654380258	0.8
103	an adult	a smartphone	simple	1	39	1	simplified	impersonal	is	kill	is	destroy	personally	d	Yes	7.84776253747361	N/A	-1	0.823575	0.0358107736404975	0.35285	1	0.4	1	3028.45	2515.96310712424	TRUE	0.64715	1	-0.250160099151699	8.09792263662531	0.4
103	an astronaut	an adult	simple	1	5	1	simplified	impersonal	is	kill	is	kill	personally	d	Yes	9.13852208418571	N/A	-1	0.532536585365854	0.0435701185003703	0.934926829268293	-1	1	0	3028.45	2515.96310712424	FALSE	-0.065073170731707	0	1.12346381245666	8.01505827172905	1
103	a cockroach	a convict	simple	1	29	1	simplified	impersonal	is	kill	is	kill	personally	k	No	7.73105314400713	N/A	-1	0.729218253968254	0.0374582859734114	0.541563492063492	-1	0.6	1	3028.45	2515.96310712424	FALSE	-0.458436507936508	1	-0.342409084037319	8.07346222804445	0.6
103	an elderly person	a celebrity	simple	1	13	1	simplified	impersonal	is	kill	is	kill	personally	d	Yes	8.81714962474341	N/A	-1	0.329113636363636	0.0420149553788142	0.658227272727273	1	0.7	1	3028.45	2515.96310712424	TRUE	0.341772727272727	1	0.782670463376849	8.03447916136656	0.7
103	a smartphone	a rabid possum	simple	1	4	1	simplified	impersonal	is	destroy	is	kill	personally	k	No	7.86480400332846	N/A	-1	0.177212	0.0332371443382816	0.354424	1	0.4	0	3028.45	2515.96310712424	TRUE	0.645576	0	-0.147829960278814	8.01263396360727	0.4
103	a cockroach	a convict	simple	1	25	1	simplified	impersonal	is	kill	is	kill	personally	d	Yes	7.66011431917393	N/A	-1	0.729218253968254	0.0374582859734114	0.541563492063492	-1	0.6	0	3028.45	2515.96310712424	FALSE	-0.458436507936508	0	-0.403584445632589	8.06369876480652	0.6
103	a college student	a gang member	simple	1	14	1	simplified	impersonal	is	kill	is	kill	personally	d	Yes	8.31996102188653	N/A	-1	0.872294871794872	0.0293594749548352	0.255410256410256	1	0.3	1	3028.45	2515.96310712424	TRUE	0.744589743589744	1	0.283050942899921	8.03691007898661	0.3
103	a convict	a rapist	simple	1	21	1	simplified	impersonal	is	kill	is	kill	personally	d	Yes	8.12177741916107	N/A	-1	0.746914814814815	0.0346036548261975	0.50617037037037	1	0.6	1	3028.45	2515.96310712424	TRUE	0.49382962962963	1	0.0678303103638527	8.05394710879722	0.6
103	a celebrity	a cockroach	simple	1	35	1	simplified	impersonal	is	kill	is	kill	personally	d	Yes	7.67042852219069	N/A	-1	0.907536363636364	0.025968701630491	0.184927272727273	1	0.2	1	3028.45	2515.96310712424	TRUE	0.815072727272727	1	-0.417701070541791	8.08812959273248	0.2
103	a judge	a rabid possum	simple	1	40	1	simplified	impersonal	is	kill	is	kill	personally	d	Yes	7.83834331555712	N/A	-1	0.966270161290323	0.0148841129102173	0.0674596774193548	1	0.1	1	3028.45	2515.96310712424	TRUE	0.932540322580645	1	-0.262029434190374	8.10037274974749	0.1
103	a smartphone	an adult with a deadly contagious disease	simple	1	28	1	simplified	impersonal	is	destroy	is	kill	personally	k	No	7.94307271727793	N/A	-1	0.548687022900763	0.0438207631587606	0.902625954198473	-1	1	1	3028.45	2515.96310712424	FALSE	-0.097374045801527	1	-0.127947537247825	8.07102025452576	1
103	a rabid possum	a life-saving antidote	simple	1	17	1	simplified	impersonal	is	kill	is	destroy	personally	k	No	8.42792472365806	N/A	-1	0.988318897637795	0.00894756052211203	0.0233622047244093	-1	0.1	1	3028.45	2515.96310712424	FALSE	-0.976637795275591	1	0.383717477920307	8.04420724573775	0.1
103	a cockroach	a police officer	simple	1	26	1	simplified	impersonal	is	kill	is	kill	personally	k	No	7.5999019592085	N/A	-1	0.969670634920635	0.0149312423818763	0.0606587301587302	-1	0.1	1	3028.45	2515.96310712424	FALSE	-0.93934126984127	1	-0.466236563921671	8.06613852313017	0.1
103	an elderly person	an addict	simple	1	38	1	simplified	impersonal	is	kill	is	kill	personally	d	Yes	9.38798433921903	N/A	-1	0.205160869565217	0.0372101974651136	0.410321739130435	1	0.5	1	3028.45	2515.96310712424	TRUE	0.589678260869565	1	1.29251107463219	8.09547326458683	0.5
103	a mentor	a college student	simple	1	20	1	simplified	impersonal	is	kill	is	kill	personally	d	Yes	7.94979721616185	N/A	-1	0.5053375	0.0447674307448438	0.989325	-1	1	0	3028.45	2515.96310712424	FALSE	-0.010675	0	-0.101713821838842	8.05151103800069	1
103	a smartphone	a police officer	simple	1	15	1	simplified	impersonal	is	destroy	is	kill	personally	k	No	8.00001409367807	N/A	-1	0.814453846153846	0.0344916287455175	0.371092307692308	-1	0.4	1	3028.45	2515.96310712424	FALSE	-0.628907692307692	1	-0.039327638428718	8.03934173210679	0.4
103	a rapist	a pedophile	simple	1	19	1	simplified	impersonal	is	kill	is	kill	personally	k	No	8.24301946898925	N/A	-1	0.486515384615385	0.0358499595299147	0.973030769230769	1	1	0	3028.45	2515.96310712424	TRUE	0.026969230769231	0	0.193943764948742	8.04907570404051	1
104	a congressman	an elderly person	simple	1	8	1	simplified	impersonal	is	kill	is	kill	personally	k	Yes	8.07184314960916	N/A	-1	0.29095871559633	0.0417844167460463	0.581917431192661	-1	0.6	0	5511.79487179487	3283.55107178579	FALSE	-0.418082568807339	0	-0.546746940579084	8.61859009018824	0.6
104	a pedophile	an assassin	simple	1	39	1	simplified	impersonal	is	kill	is	kill	personally	d	No	8.01994168767737	N/A	-1	0.35796875	0.037146122600724	0.7159375	-1	0.8	1	5511.79487179487	3283.55107178579	FALSE	-0.2840625	1	-0.26630214238226	8.28624383005963	0.8
104	a terrorist	an adult	simple	1	13	1	simplified	impersonal	is	kill	is	kill	personally	d	No	8.39525152061099	N/A	-1	0.0489194915254237	0.0195812829863483	0.0978389830508475	-1	0.1	1	5511.79487179487	3283.55107178579	FALSE	-0.902161016949153	1	-0.0190800405771618	8.41433156118816	0.1
104	a congressman	a college student	simple	1	5	1	simplified	impersonal	is	kill	is	kill	personally	d	No	8.69433468816865	N/A	-1	0.674633027522936	0.0449122068529669	0.650733944954129	-1	0.7	1	5511.79487179487	3283.55107178579	FALSE	-0.349266055045871	1	-0.179956917039078	8.87429160520773	0.7
104	a rapist	a life-saving antidote	simple	1	2	1	simplified	impersonal	is	kill	is	destroy	personally	d	No	9.13399913871946	N/A	-1	0.0341589147286822	0.0151615959229568	0.0683178294573643	-1	0.1	1	5511.79487179487	3283.55107178579	FALSE	-0.931682170542636	1	-0.19217871562255	9.32617785434201	0.1
104	a life-saving antidote	a thief	simple	1	22	1	simplified	impersonal	is	destroy	is	kill	personally	k	Yes	9.25215387478959	N/A	-1	0.0725327868852459	0.0242828826524714	0.145065573770492	1	0.2	1	5511.79487179487	3283.55107178579	TRUE	0.854934426229508	1	0.943462613098163	8.30869126169143	0.2
104	a homeless adult	a soldier	simple	1	33	1	simplified	impersonal	is	kill	is	kill	personally	k	Yes	9.04038207416563	N/A	-1	0.302771317829457	0.0392780201490213	0.605542635658915	-1	0.7	0	5511.79487179487	3283.55107178579	FALSE	-0.394457364341085	0	0.752168589277673	8.28821348488795	0.7
104	a thief	a soldier	simple	1	4	1	simplified	impersonal	is	kill	is	kill	personally	d	No	9.29320984979848	N/A	-1	0.914301652892562	0.0245811387608944	0.171396694214876	-1	0.2	1	5511.79487179487	3283.55107178579	FALSE	-0.828603305785124	1	0.295813120027237	8.99739672977124	0.2
104	a terrorist	an addict	simple	1	18	1	simplified	impersonal	is	kill	is	kill	personally	d	No	8.27715777243181	N/A	-1	0.186478632478632	0.0345786908435411	0.372957264957265	-1	0.4	1	5511.79487179487	3283.55107178579	FALSE	-0.627042735042735	1	-0.0581021950875478	8.33525996751936	0.4
104	a soldier	a nun	simple	1	3	1	simplified	impersonal	is	kill	is	kill	personally	k	Yes	8.8071726229167	N/A	-1	0.308661290322581	0.0395741053504535	0.617322580645161	1	0.7	1	5511.79487179487	3283.55107178579	TRUE	0.382677419354839	1	-0.339060135560663	9.14623275847737	0.7
104	a thief	a terrorist	simple	1	21	1	simplified	impersonal	is	kill	is	kill	personally	k	Yes	8.34021732094704	N/A	-1	0.346827731092437	0.0386345676821959	0.693655462184874	1	0.7	1	5511.79487179487	3283.55107178579	TRUE	0.306344537815126	1	0.0266402880589585	8.31357703288808	0.7
104	a billionaire	a convict	simple	1	38	1	simplified	impersonal	is	kill	is	kill	personally	k	Yes	8.1610895128458	N/A	-1	0.758987603305785	0.0371110342251927	0.48202479338843	1	0.5	1	5511.79487179487	3283.55107178579	TRUE	0.51797520661157	1	-0.125348222709402	8.2864377355552	0.5
104	a gang member	a judge	simple	1	36	1	simplified	impersonal	is	kill	is	kill	personally	d	No	7.7445698093545	N/A	-1	0.173373949579832	0.0336118237068964	0.346747899159664	-1	0.4	1	5511.79487179487	3283.55107178579	FALSE	-0.653252100840336	1	-0.542385796330973	8.28695560568547	0.4
104	a nun	a police officer	simple	1	31	1	simplified	impersonal	is	kill	is	kill	personally	d	No	8.36637030168165	N/A	-1	0.404784090909091	0.0414255826443466	0.809568181818182	-1	0.9	1	5511.79487179487	3283.55107178579	FALSE	-0.190431818181818	1	0.0768190495107319	8.28955125217092	0.9
104	a police officer	a rapist	simple	1	34	1	simplified	impersonal	is	kill	is	kill	personally	k	Yes	8.15937473677543	N/A	-1	0.940803703703704	0.0195654498039381	0.118392592592593	1	0.2	1	5511.79487179487	3283.55107178579	TRUE	0.881607407407407	1	-0.128337849503396	8.28771258627882	0.2
104	a congressman	a nun	simple	1	26	1	simplified	impersonal	is	kill	is	kill	personally	d	No	8.60593640125063	N/A	-1	0.410649122807018	0.0461970497803229	0.821298245614035	-1	0.9	1	5511.79487179487	3283.55107178579	FALSE	-0.178701754385965	1	0.309680049203463	8.29625635204716	0.9
104	a police officer	an adult	simple	1	24	1	simplified	impersonal	is	kill	is	kill	personally	k	Yes	8.03883475778775	N/A	-1	0.5186171875	0.0415755171778906	0.962765625	1	1	1	5511.79487179487	3283.55107178579	TRUE	0.037234375	1	-0.262472905882058	8.30130766366981	1
104	a congressman	a cockroach	simple	1	27	1	simplified	impersonal	is	kill	is	kill	personally	k	Yes	8.08332860878638	N/A	-1	0.889087155963303	0.0294072322682076	0.221825688073394	1	0.3	1	5511.79487179487	3283.55107178579	TRUE	0.778174311926606	1	-0.211036386671122	8.2943649954575	0.3
104	a convict	a nun	simple	1	1	1	simplified	impersonal	is	kill	is	kill	personally	d	No	9.76600550921487	N/A	-1	0.229685606060606	0.0348702947596602	0.459371212121212	-1	0.5	1	5511.79487179487	3283.55107178579	FALSE	-0.540628787878788	1	0.222271208310641	9.54373430090422	0.5
104	an orphan	an adult	simple	1	25	1	simplified	impersonal	is	kill	is	kill	personally	d	No	8.57640505104808	N/A	-1	0.416021186440678	0.0439968568211195	0.832042372881356	1	0.9	0	5511.79487179487	3283.55107178579	TRUE	0.167957627118644	0	0.27786201918421	8.29854303186387	0.9
104	a rabid possum	an elderly person	simple	1	35	1	simplified	impersonal	is	kill	is	kill	personally	d	No	9.01042494678118	N/A	-1	0.973573770491803	0.0135916706376055	0.0528524590163935	-1	0.1	1	5511.79487179487	3283.55107178579	FALSE	-0.947147540983607	1	0.723126663317389	8.28729828346379	0.1
104	a rapist	a college student	simple	1	14	1	simplified	impersonal	is	kill	is	kill	personally	d	No	8.23959345430597	N/A	-1	0.955165322580645	0.0184868627503233	0.0896693548387097	-1	0.1	1	5511.79487179487	3283.55107178579	FALSE	-0.91033064516129	1	-0.152433803814189	8.39202725812016	0.1
104	a rabid possum	a convict	simple	1	10	1	simplified	impersonal	is	kill	is	kill	personally	d	No	8.63497622707262	N/A	-1	0.698593984962406	0.0362961969710972	0.602812030075188	-1	0.7	1	5511.79487179487	3283.55107178579	FALSE	-0.397187969924812	1	0.12165870728046	8.51331751979216	0.7
104	a mentor	an adult with a deadly contagious disease	simple	1	30	1	simplified	impersonal	is	kill	is	kill	personally	k	Yes	8.66974258987652	N/A	-1	0.746314393939394	0.0351020393607799	0.507371212121212	1	0.6	1	5511.79487179487	3283.55107178579	TRUE	0.492628787878788	1	0.379306129052612	8.29043646082391	0.6
104	a congressman	a billionaire	simple	1	17	1	simplified	impersonal	is	kill	is	kill	personally	k	Yes	9.18778796750567	N/A	-1	0.603596153846154	0.0466995107666484	0.792807692307692	-1	0.8	0	5511.79487179487	3283.55107178579	FALSE	-0.207192307692308	0	0.842088952065604	8.34569901544007	0.8
104	a celebrity	a gang member	simple	1	7	1	simplified	impersonal	is	kill	is	kill	personally	d	No	8.69884785922249	N/A	-1	0.763133928571429	0.0383290453791085	0.473732142857143	1	0.5	0	5511.79487179487	3283.55107178579	TRUE	0.526267857142857	0	0.0105982763679862	8.6882495828545	0.5
104	a terrorist	a homeless adult	simple	1	16	1	simplified	impersonal	is	kill	is	kill	personally	d	No	8.42024166533979	N/A	-1	0.921385826771654	0.0228287389178842	0.157228346456693	-1	0.2	1	5511.79487179487	3283.55107178579	FALSE	-0.842771653543307	1	0.0619216770401412	8.35831998829965	0.2
104	an orphan	an adult with a deadly contagious disease	simple	1	11	1	simplified	impersonal	is	kill	is	kill	personally	k	Yes	8.27359179819963	N/A	-1	0.209081395348837	0.0351604102289025	0.418162790697674	1	0.5	1	5511.79487179487	3283.55107178579	TRUE	0.581837209302326	1	-0.200308638544803	8.47390043674443	0.5
104	an assassin	a nun	simple	1	29	1	simplified	impersonal	is	kill	is	kill	personally	d	No	8.04076899436758	N/A	-1	0.871114173228347	0.0293102915399754	0.257771653543307	-1	0.3	1	5511.79487179487	3283.55107178579	FALSE	-0.742228346456693	1	-0.250737697618149	8.29150669198573	0.3
104	a gang member	an assassin	simple	1	19	1	simplified	impersonal	is	kill	is	kill	personally	k	Yes	8.14148104145742	N/A	-1	0.586697580645161	0.041598449334662	0.826604838709677	1	0.9	1	5511.79487179487	3283.55107178579	TRUE	0.173395161290323	1	-0.185144589968887	8.32662563142631	0.9
104	a smartphone	a celebrity	simple	1	40	1	simplified	impersonal	is	destroy	is	kill	personally	d	No	7.42177579364465	N/A	-1	0.701517543859649	0.0438928022145157	0.596964912280702	-1	0.6	1	5511.79487179487	3283.55107178579	FALSE	-0.403035087719298	1	-0.864307653472801	8.28608344711745	0.6
104	a smartphone	an orphan	simple	1	37	1	simplified	impersonal	is	destroy	is	kill	personally	d	No	7.42416528104203	N/A	-1	0.876079166666667	0.0294574495685741	0.247841666666667	-1	0.3	1	5511.79487179487	3283.55107178579	FALSE	-0.752158333333333	1	-0.862506889302197	8.28667217034423	0.3
104	a nun	a judge	simple	1	6	1	simplified	impersonal	is	kill	is	kill	personally	d	No	9.48872939751637	N/A	-1	0.51370325203252	0.044583257053692	0.972593495934959	-1	1	1	5511.79487179487	3283.55107178579	FALSE	-0.027406504065041	1	0.716260394171536	8.77246900334483	1
104	a rapist	a soldier	simple	1	20	1	simplified	impersonal	is	kill	is	kill	personally	d	No	8.53797573059877	N/A	-1	0.0383937007874016	0.0166626194104079	0.0767874015748031	-1	0.1	1	5511.79487179487	3283.55107178579	FALSE	-0.923212598425197	1	0.218491723613116	8.31948400698565	0.1
104	a billionaire	an orphan	simple	1	9	1	simplified	impersonal	is	kill	is	kill	personally	d	No	8.15851624480683	N/A	-1	0.380700892857143	0.0445485273162883	0.761401785714286	-1	0.8	1	5511.79487179487	3283.55107178579	FALSE	-0.238598214285714	1	-0.402457147352985	8.56097339215982	0.8
104	a congressman	a pedophile	simple	1	32	1	simplified	impersonal	is	kill	is	kill	personally	k	Yes	8.09955428237636	N/A	-1	0.892934782608696	0.027463767254693	0.214130434782609	1	0.3	1	5511.79487179487	3283.55107178579	TRUE	0.785869565217391	1	-0.1892647967956	8.28881907917196	0.3
105	a rabid possum	a soldier	simple	1	27	1	simplified	impersonal	is	kill	is	kill	personally	k	No	10.1594854407213	N/A	-1	0.983396	0.0108454971674335	0.0332080000000001	-1	0.1	1	8314.775	5823.3181724701	FALSE	-0.966792	1	1.5174684785812	8.64201696214009	0.1
105	a rapist	a convict	simple	1	22	1	simplified	impersonal	is	kill	is	kill	personally	k	No	9.14313162228273	N/A	-1	0.746914814814815	0.0346036548261975	0.50617037037037	-1	0.6	1	8314.775	5823.3181724701	FALSE	-0.49382962962963	1	0.362735601048051	8.78039602123468	0.6
105	an elderly person	a congressman	simple	1	3	1	simplified	impersonal	is	kill	is	kill	personally	k	No	8.95247596793358	N/A	-1	0.29095871559633	0.0417844167460463	0.581917431192661	1	0.6	0	8314.775	5823.3181724701	TRUE	0.418082568807339	0	-0.374272530207044	9.32674849814063	0.6
105	a cockroach	a thief	simple	1	7	1	simplified	impersonal	is	kill	is	kill	personally	k	No	9.04511189260841	N/A	-1	0.642260683760684	0.043284938389608	0.715478632478632	-1	0.8	1	8314.775	5823.3181724701	FALSE	-0.284521367521368	1	-0.163858442345694	9.2089703349541	0.8
105	an astronaut	a celebrity	simple	1	26	1	simplified	impersonal	is	kill	is	kill	personally	k	No	9.14942195700677	N/A	-1	0.409064102564103	0.0433030278126693	0.818128205128205	1	0.9	0	8314.775	5823.3181724701	TRUE	0.181871794871795	0	0.479904760867184	8.66951719613958	0.9
105	a convict	a homeless adult	simple	1	5	1	simplified	impersonal	is	kill	is	kill	personally	k	No	8.80881748310064	N/A	-1	0.232262773722628	0.0346285608512593	0.464525547445255	-1	0.5	1	8314.775	5823.3181724701	FALSE	-0.535474452554745	1	-0.458854837442136	9.26767232054278	0.5
105	a police officer	a gang member	simple	1	6	1	simplified	impersonal	is	kill	is	kill	personally	d	Yes	8.98944429320245	N/A	-1	0.15042578125	0.0310331917629791	0.3008515625	1	0.4	1	8314.775	5823.3181724701	TRUE	0.6991484375	1	-0.248830409032466	9.23827470223492	0.4
105	a convict	a soldier	simple	1	34	1	simplified	impersonal	is	kill	is	kill	personally	k	No	8.39773375137891	N/A	-1	0.140184615384615	0.0297073882973916	0.280369230769231	-1	0.3	1	8314.775	5823.3181724701	FALSE	-0.719630769230769	1	-0.0542086459392532	8.45194239731816	0.3
105	a terrorist	an astronaut	simple	1	23	1	simplified	impersonal	is	kill	is	kill	personally	k	No	8.57073395834427	N/A	-1	0.0542235772357724	0.0196613004138196	0.108447154471545	-1	0.2	1	8314.775	5823.3181724701	FALSE	-0.891552845528455	1	-0.181810114537434	8.7525440728817	0.2
105	a thief	a gang member	simple	1	30	1	simplified	impersonal	is	kill	is	kill	personally	k	No	8.06022424044096	N/A	-1	0.531546218487395	0.0426380366568949	0.93690756302521	-1	1	1	8314.775	5823.3181724701	FALSE	-0.0630924369747899	1	-0.499814308206533	8.56003854864749	1
105	a mentor	a nun	simple	1	35	1	simplified	impersonal	is	kill	is	kill	personally	k	No	7.83597458172157	N/A	-1	0.601492	0.0424672273806685	0.797016	1	0.8	0	8314.775	5823.3181724701	TRUE	0.202984	0	-0.589157742046024	8.42513232376759	0.8
105	a terrorist	a rabid possum	simple	1	11	1	simplified	impersonal	is	kill	is	kill	personally	d	Yes	9.10353436765837	N/A	-1	0.422790322580645	0.0410965977367719	0.84558064516129	-1	0.9	0	8314.775	5823.3181724701	FALSE	-0.15441935483871	0	0.0108548934588377	9.09267947419954	0.9
105	a judge	an assassin	simple	1	37	1	simplified	impersonal	is	kill	is	kill	personally	k	No	8.41005331585833	N/A	-1	0.877564516129032	0.0267608149962397	0.244870967741935	1	0.3	0	8314.775	5823.3181724701	TRUE	0.755129032258065	0	0.0382862794192835	8.37176703643905	0.3
105	a life-saving antidote	an addict	simple	1	13	1	simplified	impersonal	is	destroy	is	kill	personally	d	Yes	9.43580123624555	N/A	-1	0.150495833333333	0.0322217365497035	0.300991666666667	1	0.4	1	8314.775	5823.3181724701	TRUE	0.699008333333333	1	0.400715332577615	9.03508590366794	0.4
105	an addict	a rapist	simple	1	12	1	simplified	impersonal	is	kill	is	kill	personally	d	Yes	10.2275979816015	N/A	-1	0.171774193548387	0.0322414105028782	0.343548387096774	1	0.4	1	8314.775	5823.3181724701	TRUE	0.656451612903226	1	1.16376103779499	9.06383694380647	0.4
105	an orphan	a homeless adult	simple	1	36	1	simplified	impersonal	is	kill	is	kill	personally	k	No	8.59341321732765	N/A	-1	0.330566929133858	0.0407448570047656	0.661133858267717	1	0.7	0	8314.775	5823.3181724701	TRUE	0.338866141732283	0	0.195005923932388	8.39840729339526	0.7
105	an adult with a deadly contagious disease	an elderly person	simple	1	4	1	simplified	impersonal	is	kill	is	kill	personally	d	Yes	9.11504019212186	N/A	-1	0.224889763779528	0.0352517867541622	0.449779527559055	-1	0.5	0	8314.775	5823.3181724701	FALSE	-0.550220472440945	0	-0.182123294495003	9.29716348661686	0.5
105	a convict	a rabid possum	simple	1	14	1	simplified	impersonal	is	kill	is	kill	personally	d	Yes	8.51619269108265	N/A	-1	0.698593984962406	0.0362961969710972	0.602812030075188	1	0.7	1	8314.775	5823.3181724701	TRUE	0.397187969924812	1	-0.490233372488648	9.0064260635713	0.7
105	an orphan	a homeless adult	simple	1	24	1	simplified	impersonal	is	kill	is	kill	personally	d	Yes	8.78599820809833	N/A	-1	0.330566929133858	0.0407448570047656	0.661133858267717	1	0.7	1	8314.775	5823.3181724701	TRUE	0.338866141732283	1	0.0612177355013461	8.72478047259698	0.7
105	an elderly person	a congressman	simple	1	15	1	simplified	impersonal	is	kill	is	kill	personally	k	No	9.27387839278017	N/A	-1	0.29095871559633	0.0417844167460463	0.581917431192661	1	0.6	0	8314.775	5823.3181724701	TRUE	0.418082568807339	0	0.296021258555662	8.97785713422451	0.6
105	an addict	a homeless adult	simple	1	1	1	simplified	impersonal	is	kill	is	kill	personally	k	No	8.82541291508557	N/A	-1	0.691148	0.0398112928078835	0.617704	-1	0.7	1	8314.775	5823.3181724701	FALSE	-0.382296	1	-0.560788337924837	9.3862012530104	0.7
105	an orphan	an assassin	simple	1	18	1	simplified	impersonal	is	kill	is	kill	personally	d	Yes	8.32796785830549	N/A	-1	0.0721612903225806	0.0220956009854589	0.144322580645161	1	0.2	1	8314.775	5823.3181724701	TRUE	0.855677419354839	1	-0.564725073204393	8.89269293150988	0.2
105	an assassin	a rapist	simple	1	10	1	simplified	impersonal	is	kill	is	kill	personally	k	No	9.49792243942763	N/A	-1	0.376809160305344	0.0378201733093437	0.753618320610687	1	0.8	0	8314.775	5823.3181724701	TRUE	0.246381679389313	0	0.376308653444365	9.12161378598327	0.8
105	a life-saving antidote	a celebrity	simple	1	33	1	simplified	impersonal	is	destroy	is	kill	personally	d	Yes	9.37160851957231	N/A	-1	0.251382608695652	0.0387220706578808	0.502765217391304	1	0.6	1	8314.775	5823.3181724701	TRUE	0.497234782608696	1	0.892770734904785	8.47883778466752	0.6
105	a gang member	an adult	simple	1	31	1	simplified	impersonal	is	kill	is	kill	personally	k	No	7.78779687818117	N/A	-1	0.144597457627119	0.031758057218611	0.289194915254237	-1	0.3	1	8314.775	5823.3181724701	FALSE	-0.710805084745763	1	-0.745088709372096	8.53288558755327	0.3
105	a gang member	a celebrity	simple	1	38	1	simplified	impersonal	is	kill	is	kill	personally	k	No	6.95368421087054	N/A	-1	0.763133928571429	0.0383290453791085	0.473732142857143	-1	0.5	1	8314.775	5823.3181724701	FALSE	-0.526267857142857	1	-1.39152707312202	8.34521128399256	0.5
105	a soldier	an adult with a deadly contagious disease	simple	1	2	1	simplified	impersonal	is	kill	is	kill	personally	d	Yes	9.67658695234421	N/A	-1	0.802759541984733	0.0345305998528518	0.394480916030534	1	0.4	1	8314.775	5823.3181724701	TRUE	0.605519083969466	1	0.320159298599403	9.3564276537448	0.4
105	a rabid possum	a police officer	simple	1	9	1	simplified	impersonal	is	kill	is	kill	personally	k	No	8.55583681500844	N/A	-1	0.962003759398496	0.0161145926644098	0.0759924812030075	-1	0.1	1	8314.775	5823.3181724701	FALSE	-0.924007518796992	1	-0.594803356211797	9.15064017122024	0.1
105	an astronaut	a terrorist	simple	1	17	1	simplified	impersonal	is	kill	is	kill	personally	d	Yes	9.27687689577643	N/A	-1	0.0542235772357724	0.0196613004138196	0.108447154471545	1	0.2	1	8314.775	5823.3181724701	TRUE	0.891552845528455	1	0.355886040578882	8.92099085519754	0.2
105	a celebrity	a rabid possum	simple	1	8	1	simplified	impersonal	is	kill	is	kill	personally	d	Yes	8.80327398250104	N/A	-1	0.895029914529915	0.0283846099629995	0.209940170940171	1	0.3	1	8314.775	5823.3181724701	TRUE	0.790059829059829	1	-0.376484940401369	9.17975892290241	0.3
105	an addict	an orphan	simple	1	20	1	simplified	impersonal	is	kill	is	kill	personally	k	No	9.11668881589473	N/A	-1	0.183042735042735	0.03661901980676	0.36608547008547	-1	0.4	1	8314.775	5823.3181724701	FALSE	-0.63391452991453	1	0.28032272830583	8.8363660875889	0.4
105	a celebrity	a rabid possum	simple	1	28	1	simplified	impersonal	is	kill	is	kill	personally	d	Yes	9.37720982421122	N/A	-1	0.895029914529915	0.0283846099629995	0.209940170940171	1	0.3	1	8314.775	5823.3181724701	TRUE	0.790059829059829	1	0.7626058636616	8.61460396054962	0.3
105	a congressman	a thief	simple	1	40	1	simplified	impersonal	is	kill	is	kill	personally	k	No	7.70526247486633	N/A	-1	0.753238738738739	0.0390663538450212	0.493522522522523	1	0.5	0	8314.775	5823.3181724701	TRUE	0.506477477477477	0	-0.587089746398958	8.29235222126528	0.5
105	a nun	a homeless adult	simple	1	16	1	simplified	impersonal	is	kill	is	kill	personally	k	No	9.4430381360952	N/A	-1	0.501286259541985	0.0415129156464946	0.997427480916031	-1	1	1	8314.775	5823.3181724701	FALSE	-0.00257251908396905	1	0.493659308842059	8.94937882725315	1
105	a terrorist	a soldier	simple	1	25	1	simplified	impersonal	is	kill	is	kill	personally	k	No	8.57791192645094	N/A	-1	0.965954166666667	0.0162419605935617	0.0680916666666667	-1	0.1	1	8314.775	5823.3181724701	FALSE	-0.931908333333333	1	-0.119193013684159	8.6971049401351	0.1
105	a gang member	an assassin	simple	1	21	1	simplified	impersonal	is	kill	is	kill	personally	d	Yes	8.9782822032724	N/A	-1	0.586697580645161	0.041598449334662	0.826604838709677	1	0.9	1	8314.775	5823.3181724701	TRUE	0.173395161290323	1	0.169945604479263	8.80833659879313	0.9
106	a soldier	a mentor	simple	1	11	1	simplified	impersonal	is	kill	is	kill	personally	d	No	7.85282781228174	N/A	-1	0.397934959349593	0.0431233324361394	0.795869918699187	1	0.8	0	3326.13157894737	1096.46801930298	TRUE	0.204130081300813	0	-0.183854841749034	8.03668265403078	0.8
106	a convict	a rapist	simple	1	36	1	simplified	impersonal	is	kill	is	kill	personally	k	Yes	7.63191651307125	N/A	-1	0.746914814814815	0.0346036548261975	0.50617037037037	1	0.6	1	3326.13157894737	1096.46801930298	TRUE	0.49382962962963	1	-0.404763185662196	8.03667969873345	0.6
106	a gang member	a rabid possum	simple	1	39	1	simplified	impersonal	is	kill	is	kill	personally	d	No	8.05388708361822	N/A	-1	0.649120967741936	0.0404788207821599	0.701758064516129	1	0.8	0	3326.13157894737	1096.46801930298	TRUE	0.298241935483871	0	0.0172073848847756	8.03667969873345	0.8
106	a police officer	a nun	simple	1	38	1	simplified	impersonal	is	kill	is	kill	personally	d	No	8.14351740579748	N/A	-1	0.404784090909091	0.0414255826443466	0.809568181818182	1	0.9	0	3326.13157894737	1096.46801930298	TRUE	0.190431818181818	0	0.106837707064033	8.03667969873345	0.9
106	a convict	an addict	simple	1	18	1	simplified	impersonal	is	kill	is	kill	personally	k	Yes	8.66233195708248	N/A	-1	0.403472222222222	0.0428472138999983	0.806944444444444	-1	0.9	0	3326.13157894737	1096.46801930298	FALSE	-0.193055555555556	0	0.625652257345969	8.03667969973651	0.9
106	a gang member	a pedophile	simple	1	9	1	simplified	impersonal	is	kill	is	kill	personally	k	Yes	7.84971375760487	N/A	-1	0.739613821138211	0.0357786954941971	0.520772357723577	1	0.6	1	3326.13157894737	1096.46801930298	TRUE	0.479227642276423	1	-0.186994902730006	8.03670866033488	0.6
106	a pedophile	a convict	simple	1	6	1	simplified	impersonal	is	kill	is	kill	personally	d	No	7.86403565907245	N/A	-1	0.767575187969925	0.0323881720842725	0.46484962406015	-1	0.5	1	3326.13157894737	1096.46801930298	FALSE	-0.53515037593985	1	-0.17353253398733	8.03756819305978	0.5
106	a judge	a celebrity	simple	1	10	1	simplified	impersonal	is	kill	is	kill	personally	k	Yes	7.9002660367677	N/A	-1	0.444699115044248	0.0455175805740513	0.889398230088496	1	0.9	1	3326.13157894737	1096.46801930298	TRUE	0.110601769911504	1	-0.136422913459863	8.03668895022756	0.9
106	a pedophile	a thief	simple	1	37	1	simplified	impersonal	is	kill	is	kill	personally	d	No	8.22282213081366	N/A	-1	0.294383064516129	0.0359088954403029	0.588766129032258	-1	0.6	1	3326.13157894737	1096.46801930298	FALSE	-0.411233870967742	1	0.186142432080212	8.03667969873345	0.6
106	an adult with a deadly contagious disease	a thief	simple	1	14	1	simplified	impersonal	is	kill	is	kill	personally	d	No	8.2960476427647	N/A	-1	0.338265384615385	0.0386563172601653	0.676530769230769	1	0.7	0	3326.13157894737	1096.46801930298	TRUE	0.323469230769231	0	0.259367847699581	8.03667979506512	0.7
106	a rapist	a convict	simple	1	31	1	simplified	impersonal	is	kill	is	kill	personally	d	No	7.88193748927207	N/A	-1	0.746914814814815	0.0346036548261975	0.50617037037037	-1	0.6	1	3326.13157894737	1096.46801930298	FALSE	-0.49382962962963	1	-0.154742209461378	8.03667969873345	0.6
106	a pedophile	a college student	simple	1	26	1	simplified	impersonal	is	kill	is	kill	personally	d	No	7.69484807238461	N/A	-1	0.964573770491803	0.0158231596906213	0.0708524590163935	-1	0.1	1	3326.13157894737	1096.46801930298	FALSE	-0.929147540983607	1	-0.341831626348946	8.03667969873356	0.1
106	a rapist	a terrorist	simple	1	2	1	simplified	impersonal	is	kill	is	kill	personally	k	Yes	8.33495163142245	N/A	-1	0.46352380952381	0.0383955496686703	0.927047619047619	-1	1	0	3326.13157894737	1096.46801930298	FALSE	-0.072952380952381	0	0.212942778499883	8.12200885292257	1
106	a college student	a thief	simple	1	19	1	simplified	impersonal	is	kill	is	kill	personally	k	Yes	7.92660259918138	N/A	-1	0.890021186440678	0.0269477602042852	0.219957627118644	1	0.3	1	3326.13157894737	1096.46801930298	TRUE	0.780042372881356	1	-0.11007709987248	8.03667969905386	0.3
106	a smartphone	an astronaut	simple	1	12	1	simplified	impersonal	is	destroy	is	kill	personally	d	No	7.7931743471892	N/A	-1	0.82174	0.0324294938608679	0.35652	-1	0.4	1	3326.13157894737	1096.46801930298	FALSE	-0.64348	1	-0.243506295584438	8.03668064277364	0.4
106	a homeless adult	a celebrity	simple	1	22	1	simplified	impersonal	is	kill	is	kill	personally	k	Yes	8.30943074214033	N/A	-1	0.461413223140496	0.0434852321355252	0.922826446280992	1	1	1	3326.13157894737	1096.46801930298	TRUE	0.077173553719008	1	0.272751043396438	8.03667969874389	1
106	a pedophile	a rapist	simple	1	3	1	simplified	impersonal	is	kill	is	kill	personally	d	No	7.85709386490249	N/A	-1	0.486515384615385	0.0358499595299147	0.973030769230769	-1	1	1	3326.13157894737	1096.46801930298	FALSE	-0.026969230769231	1	-0.206843379305547	8.06393724420804	1
106	a celebrity	a congressman	simple	1	30	1	simplified	impersonal	is	kill	is	kill	personally	k	Yes	8.50774873258824	N/A	-1	0.543918269230769	0.0469207180954197	0.912163461538462	1	1	1	3326.13157894737	1096.46801930298	TRUE	0.087836538461538	1	0.471069033854789	8.03667969873345	1
106	an adult	a judge	simple	1	40	1	simplified	impersonal	is	kill	is	kill	personally	k	Yes	8.42200300441249	N/A	-1	0.433260504201681	0.0436336776447661	0.866521008403361	1	0.9	1	3326.13157894737	1096.46801930298	TRUE	0.133478991596639	1	0.385323305679041	8.03667969873345	0.9
106	a smartphone	a celebrity	simple	1	8	1	simplified	impersonal	is	destroy	is	kill	personally	k	Yes	7.91862865334224	N/A	-1	0.701517543859649	0.0438928022145157	0.596964912280702	-1	0.6	0	3326.13157894737	1096.46801930298	FALSE	-0.403035087719298	0	-0.118141709055553	8.03677036239779	0.6
106	an astronaut	a terrorist	simple	1	21	1	simplified	impersonal	is	kill	is	kill	personally	k	Yes	8.0507033814703	N/A	-1	0.0542235772357724	0.0196613004138196	0.108447154471545	1	0.2	1	3326.13157894737	1096.46801930298	TRUE	0.891552845528455	1	0.0140236827041562	8.03667969876614	0.2
106	a homeless adult	a billionaire	simple	1	32	1	simplified	impersonal	is	kill	is	kill	personally	k	Yes	8.06965530688617	N/A	-1	0.525508333333333	0.0447761792214355	0.948983333333333	-1	1	0	3326.13157894737	1096.46801930298	FALSE	-0.051016666666667	0	0.0329756081527179	8.03667969873345	1
106	a terrorist	a life-saving antidote	simple	1	7	1	simplified	impersonal	is	kill	is	destroy	personally	d	No	8.23323750070527	N/A	-1	0.0272008196721311	0.0145106085142059	0.0544016393442623	-1	0.1	1	3326.13157894737	1096.46801930298	FALSE	-0.945598360655738	1	0.196273981339425	8.03696351936584	0.1
106	a congressman	a cockroach	simple	1	33	1	simplified	impersonal	is	kill	is	kill	personally	k	Yes	7.70930833338587	N/A	-1	0.889087155963303	0.0294072322682076	0.221825688073394	1	0.3	1	3326.13157894737	1096.46801930298	TRUE	0.778174311926606	1	-0.327371365347578	8.03667969873345	0.3
106	a judge	a cockroach	simple	1	4	1	simplified	impersonal	is	kill	is	kill	personally	k	Yes	7.97004930497614	N/A	-1	0.972495726495726	0.014618636618766	0.0550085470085471	1	0.1	1	3326.13157894737	1096.46801930298	TRUE	0.944991452991453	1	-0.0753375442307922	8.04538684920693	0.1
106	a congressman	a celebrity	simple	1	28	1	simplified	impersonal	is	kill	is	kill	personally	k	Yes	8.36985260351753	N/A	-1	0.543918269230769	0.0469207180954197	0.912163461538462	-1	1	0	3326.13157894737	1096.46801930298	FALSE	-0.087836538461538	0	0.333172904784071	8.03667969873346	1
106	a mentor	a terrorist	simple	1	27	1	simplified	impersonal	is	kill	is	kill	personally	k	Yes	7.41457288135059	N/A	-1	0.960311475409836	0.017133707168974	0.0793770491803278	1	0.1	1	3326.13157894737	1096.46801930298	TRUE	0.920622950819672	1	-0.622106817382894	8.03667969873348	0.1
106	a mentor	a gang member	simple	1	29	1	simplified	impersonal	is	kill	is	kill	personally	k	Yes	7.61579107203583	N/A	-1	0.13197131147541	0.0293087925400361	0.26394262295082	1	0.3	1	3326.13157894737	1096.46801930298	TRUE	0.73605737704918	1	-0.420888626697618	8.03667969873345	0.3
106	a cockroach	a billionaire	simple	1	35	1	simplified	impersonal	is	kill	is	kill	personally	k	Yes	8.18674278711352	N/A	-1	0.934636363636364	0.022333748386201	0.130727272727273	-1	0.2	0	3326.13157894737	1096.46801930298	FALSE	-0.869272727272727	0	0.150063088380071	8.03667969873345	0.2
106	a rapist	an addict	simple	1	5	1	simplified	impersonal	is	kill	is	kill	personally	d	No	7.64826303090192	N/A	-1	0.171774193548387	0.0322414105028782	0.343548387096774	-1	0.4	1	3326.13157894737	1096.46801930298	FALSE	-0.656451612903226	1	-0.391198080025759	8.03946111092768	0.4
106	a terrorist	a rabid possum	simple	1	15	1	simplified	impersonal	is	kill	is	kill	personally	d	No	8.05927622330565	N/A	-1	0.422790322580645	0.0410965977367719	0.84558064516129	-1	0.9	1	3326.13157894737	1096.46801930298	FALSE	-0.15441935483871	1	0.0225964938000107	8.03667972950564	0.9
106	a smartphone	a rabid possum	simple	1	25	1	simplified	impersonal	is	destroy	is	kill	personally	d	No	8.29679586577005	N/A	-1	0.177212	0.0332371443382816	0.354424	1	0.4	0	3326.13157894737	1096.46801930298	TRUE	0.645576	0	0.260116167036264	8.03667969873379	0.4
106	a cockroach	a mentor	simple	1	34	1	simplified	impersonal	is	kill	is	kill	personally	d	No	8.03527891114467	N/A	-1	0.986491666666667	0.00949289447961774	0.0270166666666667	-1	0.1	1	3326.13157894737	1096.46801930298	FALSE	-0.972983333333333	1	-0.00140078758878026	8.03667969873345	0.1
106	a terrorist	an adult with a deadly contagious disease	simple	1	20	1	simplified	impersonal	is	kill	is	kill	personally	k	Yes	8.80267284031282	N/A	-1	0.221872093023256	0.0329352822344634	0.443744186046512	-1	0.5	0	3326.13157894737	1096.46801930298	FALSE	-0.556255813953488	0	0.765993141477017	8.0366796988358	0.5
106	a celebrity	a cockroach	simple	1	13	1	simplified	impersonal	is	kill	is	kill	personally	k	Yes	7.96206730875367	N/A	-1	0.907536363636364	0.025968701630491	0.184927272727273	1	0.2	1	3326.13157894737	1096.46801930298	TRUE	0.815072727272727	1	-0.0746126915439858	8.03668000029765	0.2
106	a college student	a judge	simple	1	1	1	simplified	impersonal	is	kill	is	kill	personally	k	Yes	8.26384813136891	N/A	-1	0.588745762711864	0.0436924179255189	0.822508474576271	1	0.9	1	3326.13157894737	1096.46801930298	TRUE	0.177491525423729	1	-0.0399526315637413	8.30380076293265	0.9
106	a nun	a rabid possum	simple	1	16	1	simplified	impersonal	is	kill	is	kill	personally	k	Yes	7.93773177526011	N/A	-1	0.959507874015748	0.0160581721440101	0.080984251968504	1	0.1	1	3326.13157894737	1096.46801930298	TRUE	0.919015748031496	1	-0.0989479333032071	8.03667970856332	0.1
107	a congressman	a celebrity	simple	2	29	1	simplified	impersonal	is	kill	is	kill	personally	k	No	8.22657347497711	N/A	-1	0.543918269230769	0.0469207180954197	0.912163461538462	-1	1	1	4287.725	2259.58006068407	FALSE	-0.087836538461538	1	0.111410559574029	8.11516291540308	1
107	a mentor	a congressman	simple	2	28	1	simplified	impersonal	is	kill	is	kill	personally	d	Yes	8.13739583005665	N/A	-1	0.328504385964912	0.0446866345382589	0.657008771929825	1	0.7	1	4287.725	2259.58006068407	TRUE	0.342991228070175	1	0.00303746143145567	8.1343583686252	0.7
107	an addict	a smartphone	simple	2	34	1	simplified	impersonal	is	kill	is	destroy	personally	k	No	8.48466999971068	N/A	-1	0.557512711864407	0.0452002593125871	0.884974576271186	1	0.9	0	4287.725	2259.58006068407	TRUE	0.115025423728814	0	0.464973221391537	8.01969677831914	0.9
107	a terrorist	a mentor	simple	2	4	1	simplified	impersonal	is	kill	is	kill	personally	k	No	8.90191122637961	N/A	-1	0.960311475409836	0.017133707168974	0.0793770491803278	-1	0.1	1	4287.725	2259.58006068407	FALSE	-0.920622950819672	1	0.296455183688584	8.60545604269103	0.1
107	a thief	a soldier	simple	2	35	1	simplified	impersonal	is	kill	is	kill	personally	k	No	8.12651816878071	N/A	-1	0.914301652892562	0.0245811387608944	0.171396694214876	-1	0.2	1	4287.725	2259.58006068407	FALSE	-0.828603305785124	1	0.125812816001762	8.00070535277895	0.2
107	a celebrity	a billionaire	simple	2	6	1	simplified	impersonal	is	kill	is	kill	personally	d	Yes	8.25868149626424	N/A	-1	0.557128571428571	0.0483242954193562	0.885742857142857	-1	0.9	0	4287.725	2259.58006068407	FALSE	-0.114257142857143	0	-0.306742754844826	8.56542425110906	0.9
107	a convict	a homeless adult	simple	2	31	1	simplified	impersonal	is	kill	is	kill	personally	k	No	8.00869818298853	N/A	-1	0.232262773722628	0.0346285608512593	0.464525547445255	-1	0.5	1	4287.725	2259.58006068407	FALSE	-0.535474452554745	1	-0.0681762337830278	8.07687441677156	0.5
107	an adult with a deadly contagious disease	a nun	simple	2	12	1	simplified	impersonal	is	kill	is	kill	personally	k	No	8.83608319099221	N/A	-1	0.674086466165414	0.0410759891711213	0.651827067669173	-1	0.7	1	4287.725	2259.58006068407	FALSE	-0.348172932330827	1	0.389902311704795	8.44618087928742	0.7
107	an adult with a deadly contagious disease	a college student	simple	2	40	1	simplified	impersonal	is	kill	is	kill	personally	k	No	7.60738142563979	N/A	-1	0.75182421875	0.0368129038711905	0.4963515625	-1	0.5	1	4287.725	2259.58006068407	FALSE	-0.5036484375	1	-0.298872495695417	7.90625392133521	0.5
107	a congressman	a convict	simple	2	39	1	simplified	impersonal	is	kill	is	kill	personally	d	Yes	7.7341213033283	N/A	-1	0.675483333333333	0.0410782915558602	0.649033333333333	1	0.7	1	4287.725	2259.58006068407	TRUE	0.350966666666667	1	-0.190955678030923	7.92507698135923	0.7
107	a convict	an elderly person	simple	2	20	1	simplified	impersonal	is	kill	is	kill	personally	k	No	8.26230094178745	N/A	-1	0.158904761904762	0.0300848985417712	0.317809523809524	-1	0.4	1	4287.725	2259.58006068407	FALSE	-0.682190476190476	1	-0.0268580047977238	8.28915894658517	0.4
107	an adult	a soldier	simple	2	2	1	simplified	impersonal	is	kill	is	kill	personally	k	No	7.55538194424027	N/A	-1	0.615733333333333	0.0414353405078147	0.768533333333333	-1	0.8	1	4287.725	2259.58006068407	FALSE	-0.231466666666667	1	-1.09024873552186	8.64563067976214	0.8
107	a celebrity	a smartphone	simple	2	24	1	simplified	impersonal	is	kill	is	destroy	personally	d	Yes	7.81156848934518	N/A	-1	0.701517543859649	0.0438928022145157	0.596964912280702	1	0.6	1	4287.725	2259.58006068407	TRUE	0.403035087719298	1	-0.399914473474532	8.21148296281971	0.6
107	a life-saving antidote	a pedophile	simple	2	38	1	simplified	impersonal	is	destroy	is	kill	personally	d	Yes	8.35420356292178	N/A	-1	0.0265952380952381	0.0146733502285532	0.0531904761904762	1	0.1	1	4287.725	2259.58006068407	TRUE	0.946809523809524	1	0.410269968270265	7.94393359465151	0.1
107	a soldier	an elderly person	simple	2	14	1	simplified	impersonal	is	kill	is	kill	personally	d	Yes	8.39502555744203	N/A	-1	0.541203389830509	0.0422258319464129	0.917593220338983	1	1	1	4287.725	2259.58006068407	TRUE	0.0824067796610169	1	-0.0116898512132533	8.40671540865528	1
107	an astronaut	a life-saving antidote	simple	2	17	1	simplified	impersonal	is	kill	is	destroy	personally	k	No	8.58802437217683	N/A	-1	0.300345238095238	0.0409364299350954	0.600690476190476	-1	0.7	1	4287.725	2259.58006068407	FALSE	-0.399309523809524	1	0.240244218018583	8.34778015415825	0.7
107	an addict	a mentor	simple	2	26	1	simplified	impersonal	is	kill	is	kill	personally	k	No	8.14409846333852	N/A	-1	0.771420833333333	0.0373374761509099	0.457158333333333	-1	0.5	1	4287.725	2259.58006068407	FALSE	-0.542841666666667	1	-0.0287535239714387	8.17285198730996	0.5
107	a thief	a mentor	simple	2	10	1	simplified	impersonal	is	kill	is	kill	personally	k	No	8.19090888118251	N/A	-1	0.890504098360656	0.0264293417074441	0.218991803278689	-1	0.3	1	4287.725	2259.58006068407	FALSE	-0.781008196721311	1	-0.294878293422467	8.48578717460498	0.3
107	a convict	a judge	simple	2	25	1	simplified	impersonal	is	kill	is	kill	personally	k	No	7.8458075026378	N/A	-1	0.220802325581395	0.0340483697120794	0.441604651162791	-1	0.5	1	4287.725	2259.58006068407	FALSE	-0.558395348837209	1	-0.34634277223167	8.19215027486947	0.5
107	a mentor	a billionaire	simple	2	27	1	simplified	impersonal	is	kill	is	kill	personally	d	Yes	8.01862546504575	N/A	-1	0.441786956521739	0.0467619467776302	0.883573913043478	1	0.9	1	4287.725	2259.58006068407	TRUE	0.116426086956522	1	-0.134962573883717	8.15358803892947	0.9
107	a celebrity	a rapist	simple	2	5	1	simplified	impersonal	is	kill	is	kill	personally	d	Yes	9.03824633533766	N/A	-1	0.891428571428571	0.0262096352054434	0.217142857142857	1	0.3	1	4287.725	2259.58006068407	TRUE	0.782857142857143	1	0.4528240123374	8.58542232300026	0.3
107	a life-saving antidote	a terrorist	simple	2	1	1	simplified	impersonal	is	destroy	is	kill	personally	k	No	8.866581653304	N/A	-1	0.0272008196721311	0.0145106085142059	0.0544016393442623	1	0.1	0	4287.725	2259.58006068407	TRUE	0.945598360655738	0	0.200809928732681	8.66577172457131	0.1
107	a gang member	an adult with a deadly contagious disease	simple	2	23	1	simplified	impersonal	is	kill	is	kill	personally	d	Yes	8.03268487596762	N/A	-1	0.365081395348837	0.0401404770615099	0.730162790697674	-1	0.8	0	4287.725	2259.58006068407	FALSE	-0.269837209302326	0	-0.198165236513876	8.2308501124815	0.8
107	a terrorist	a congressman	simple	2	15	1	simplified	impersonal	is	kill	is	kill	personally	k	No	8.02649693894541	N/A	-1	0.863815315315315	0.0313499107013891	0.272369369369369	-1	0.3	1	4287.725	2259.58006068407	FALSE	-0.727630630630631	1	-0.360538387106793	8.3870353260522	0.3
107	a rabid possum	a pedophile	simple	2	18	1	simplified	impersonal	is	kill	is	kill	personally	d	Yes	8.81075792702617	N/A	-1	0.3520234375	0.0378515366945483	0.704046875	1	0.8	1	4287.725	2259.58006068407	TRUE	0.295953125	1	0.482552986671211	8.32820494035496	0.8
107	an astronaut	a college student	simple	2	22	1	simplified	impersonal	is	kill	is	kill	personally	k	No	7.96519829061218	N/A	-1	0.558131147540984	0.0447336171236144	0.883737704918033	-1	0.9	1	4287.725	2259.58006068407	FALSE	-0.116262295081967	1	-0.285053494672787	8.25025178528496	0.9
107	a gang member	an assassin	simple	2	8	1	simplified	impersonal	is	kill	is	kill	personally	d	Yes	9.45782525467655	N/A	-1	0.586697580645161	0.041598449334662	0.826604838709677	1	0.9	1	4287.725	2259.58006068407	TRUE	0.173395161290323	1	0.932290457563678	8.52553479711287	0.9
107	an assassin	an addict	simple	2	3	1	simplified	impersonal	is	kill	is	kill	personally	k	No	9.09952053687094	N/A	-1	0.724127049180328	0.038308691203758	0.551745901639344	-1	0.6	1	4287.725	2259.58006068407	FALSE	-0.448254098360656	1	0.47399506314518	8.62552547372576	0.6
107	a smartphone	a convict	simple	2	21	1	simplified	impersonal	is	destroy	is	kill	personally	d	Yes	8.04686951095958	N/A	-1	0.443930769230769	0.0422956008677499	0.887861538461538	1	0.9	1	4287.725	2259.58006068407	TRUE	0.112138461538462	1	-0.222818531810168	8.26968804276974	0.9
107	a gang member	a nun	simple	2	7	1	simplified	impersonal	is	kill	is	kill	personally	k	No	7.90211754627645	N/A	-1	0.180475409836066	0.0340785147375889	0.360950819672131	-1	0.4	1	4287.725	2259.58006068407	FALSE	-0.639049180327869	1	-0.64334421730964	8.54546176358609	0.4
107	a rabid possum	an addict	simple	2	36	1	simplified	impersonal	is	kill	is	kill	personally	d	Yes	8.11820704940578	N/A	-1	0.808901639344262	0.0343832674942287	0.382196721311475	-1	0.4	0	4287.725	2259.58006068407	FALSE	-0.617803278688525	0	0.136459329015208	7.98174772039057	0.4
107	a rabid possum	an elderly person	simple	2	13	1	simplified	impersonal	is	kill	is	kill	personally	k	No	8.61938870373091	N/A	-1	0.973573770491803	0.0135916706376055	0.0528524590163935	-1	0.1	1	4287.725	2259.58006068407	FALSE	-0.947147540983607	1	0.192958131508549	8.42643057222236	0.1
107	an adult	an elderly person	simple	2	16	1	simplified	impersonal	is	kill	is	kill	personally	d	Yes	8.65903991564447	N/A	-1	0.429715517241379	0.0428694686655005	0.859431034482759	-1	0.9	0	4287.725	2259.58006068407	FALSE	-0.140568965517241	0	0.291649653654069	8.3673902619904	0.9
107	a soldier	an addict	simple	2	9	1	simplified	impersonal	is	kill	is	kill	personally	d	Yes	8.0959035329611	N/A	-1	0.823618644067797	0.033596374904528	0.352762711864407	1	0.4	1	4287.725	2259.58006068407	TRUE	0.647237288135593	1	-0.409739755522512	8.50564328848361	0.4
107	a judge	a college student	simple	2	32	1	simplified	impersonal	is	kill	is	kill	personally	k	No	7.87473912517181	N/A	-1	0.588745762711864	0.0436924179255189	0.822508474576271	-1	0.9	1	4287.725	2259.58006068407	FALSE	-0.177491525423729	1	-0.183042124744089	8.0577812499159	0.9
107	an astronaut	an adult	simple	2	19	1	simplified	impersonal	is	kill	is	kill	personally	d	Yes	8.60410456340553	N/A	-1	0.532536585365854	0.0435701185003703	0.934926829268293	-1	1	0	4287.725	2259.58006068407	FALSE	-0.065073170731707	0	0.295440004915061	8.30866455849047	1
109	a smartphone	an addict	simple	1	6	1	simplified	impersonal	is	destroy	is	kill	personally	k	No	7.78696700261487	N/A	-1	0.557512711864407	0.0452002593125871	0.884974576271186	-1	0.9	1	2344.475	915.735321392679	FALSE	-0.115025423728814	1	-0.252258758531547	8.03922576114642	0.9
109	a congressman	a college student	simple	1	13	1	simplified	impersonal	is	kill	is	kill	personally	k	No	7.91498300584839	N/A	-1	0.674633027522936	0.0449122068529669	0.650733944954129	-1	0.7	1	2344.475	915.735321392679	FALSE	-0.349266055045871	1	0.0923007167387819	7.82268228910961	0.7
109	a judge	a cockroach	simple	1	9	1	simplified	impersonal	is	kill	is	kill	personally	d	Yes	7.44249272279444	N/A	-1	0.972495726495726	0.014618636618766	0.0550085470085471	1	0.1	1	2344.475	915.735321392679	TRUE	0.944991452991453	1	-0.494653244893908	7.93714596768835	0.1
109	a police officer	a judge	simple	1	36	1	simplified	impersonal	is	kill	is	kill	personally	k	No	7.43248380791712	N/A	-1	0.418957364341085	0.0411827154752114	0.837914728682171	1	0.9	0	2344.475	915.735321392679	TRUE	0.162085271317829	0	-0.0356334303682679	7.46811723828539	0.9
109	a police officer	a convict	simple	1	28	1	simplified	impersonal	is	kill	is	kill	personally	d	Yes	7.41397029019044	N/A	-1	0.188289855072464	0.0327554480996332	0.376579710144928	1	0.4	1	2344.475	915.735321392679	TRUE	0.623420289855072	1	-0.135186726821833	7.54915701701228	0.4
109	a cockroach	a judge	simple	1	1	1	simplified	impersonal	is	kill	is	kill	personally	k	No	8.3774712482411	N/A	-1	0.972495726495726	0.014618636618766	0.0550085470085471	-1	0.1	1	2344.475	915.735321392679	FALSE	-0.944991452991453	1	0.130364299359391	8.24710694888171	0.1
109	a celebrity	an addict	simple	1	21	1	simplified	impersonal	is	kill	is	kill	personally	d	Yes	7.59034694560257	N/A	-1	0.642013636363636	0.0439744348496013	0.715972727272727	1	0.8	1	2344.475	915.735321392679	TRUE	0.284027272727273	1	-0.0615817739559699	7.65192871955854	0.8
109	a smartphone	a congressman	simple	1	34	1	simplified	impersonal	is	destroy	is	kill	personally	k	No	7.10167597161944	N/A	-1	0.650089285714286	0.0447605876484571	0.699821428571429	-1	0.7	1	2344.475	915.735321392679	FALSE	-0.300178571428571	1	-0.383788387100465	7.48546435871991	0.7
109	a homeless adult	an adult with a deadly contagious disease	simple	1	16	1	simplified	impersonal	is	kill	is	kill	personally	d	Yes	8.19643681123503	N/A	-1	0.674557971014493	0.0389791856937781	0.650884057971014	1	0.7	1	2344.475	915.735321392679	TRUE	0.349115942028986	1	0.445847516088868	7.75058929514616	0.7
109	a convict	a gang member	simple	1	4	1	simplified	impersonal	is	kill	is	kill	personally	d	Yes	8.29254851397576	N/A	-1	0.55348828125	0.0408366708104029	0.8930234375	1	0.9	1	2344.475	915.735321392679	TRUE	0.1069765625	1	0.176308610537539	8.11623990343822	0.9
109	a gang member	a nun	simple	1	39	1	simplified	impersonal	is	kill	is	kill	personally	k	No	7.5109777520141	N/A	-1	0.180475409836066	0.0340785147375889	0.360950819672131	-1	0.4	1	2344.475	915.735321392679	FALSE	-0.639049180327869	1	0.0658535695279765	7.44512418248612	0.4
109	a pedophile	an addict	simple	1	27	1	simplified	impersonal	is	kill	is	kill	personally	k	No	7.57250298502038	N/A	-1	0.15049173553719	0.0299568238226622	0.30098347107438	-1	0.4	1	2344.475	915.735321392679	FALSE	-0.69901652892562	1	0.01075963640894	7.56174334861144	0.4
109	an elderly person	a cockroach	simple	1	3	1	simplified	impersonal	is	kill	is	kill	personally	d	Yes	7.81480342948936	N/A	-1	0.975282608695652	0.0137406182207404	0.0494347826086956	1	0.1	1	2344.475	915.735321392679	TRUE	0.950565217391304	1	-0.342910255991216	8.15771368548057	0.1
109	an assassin	a terrorist	simple	1	35	1	simplified	impersonal	is	kill	is	kill	personally	d	Yes	7.650168700845	N/A	-1	0.406971774193548	0.0399824930957364	0.813943548387097	1	0.9	1	2344.475	915.735321392679	TRUE	0.186056451612903	1	0.173593332759399	7.4765753680856	0.9
109	a nun	a gang member	simple	1	26	1	simplified	impersonal	is	kill	is	kill	personally	d	Yes	7.97968130238774	N/A	-1	0.180475409836066	0.0340785147375889	0.360950819672131	1	0.4	1	2344.475	915.735321392679	TRUE	0.639049180327869	1	0.404710468936507	7.57497083345123	0.4
109	an addict	a terrorist	simple	1	29	1	simplified	impersonal	is	kill	is	kill	personally	d	Yes	7.70526247486633	N/A	-1	0.186478632478632	0.0345786908435411	0.372957264957265	1	0.4	1	2344.475	915.735321392679	TRUE	0.627042735042735	1	0.168081713736625	7.5371807611297	0.4
109	a rapist	a congressman	simple	1	23	1	simplified	impersonal	is	kill	is	kill	personally	k	No	7.58375630070711	N/A	-1	0.872868644067797	0.0296919007172673	0.254262711864407	-1	0.3	1	2344.475	915.735321392679	FALSE	-0.745737288135593	1	-0.0350789164593515	7.61883521716646	0.3
109	an orphan	an astronaut	simple	1	7	1	simplified	impersonal	is	kill	is	kill	personally	d	Yes	8.07153089355666	N/A	-1	0.375788617886179	0.0412997095277182	0.751577235772358	1	0.8	1	2344.475	915.735321392679	TRUE	0.248422764227642	1	0.0680356520273193	8.00349524152934	0.8
109	a thief	a judge	simple	1	20	1	simplified	impersonal	is	kill	is	kill	personally	k	No	7.48493028328966	N/A	-1	0.848316666666667	0.0320801032091669	0.303366666666667	-1	0.4	1	2344.475	915.735321392679	FALSE	-0.696633333333333	1	-0.184820003378282	7.66975028666794	0.4
109	a judge	a rapist	simple	1	18	1	simplified	impersonal	is	kill	is	kill	personally	d	Yes	7.15851399732932	N/A	-1	0.937186507936508	0.0216142114701964	0.125626984126984	1	0.2	1	2344.475	915.735321392679	TRUE	0.874373015873016	1	-0.549649184531193	7.70816318186051	0.2
109	an astronaut	a life-saving antidote	simple	1	15	1	simplified	impersonal	is	kill	is	destroy	personally	k	No	8.21986474191265	N/A	-1	0.300345238095238	0.0409364299350954	0.600690476190476	-1	0.7	1	2344.475	915.735321392679	FALSE	-0.399309523809524	1	0.44642806675353	7.77343667515912	0.7
109	a rapist	a mentor	simple	1	14	1	simplified	impersonal	is	kill	is	kill	personally	k	No	7.49831587076698	N/A	-1	0.955375968992248	0.0173995969362512	0.0892480620155038	-1	0.1	1	2344.475	915.735321392679	FALSE	-0.910751937984496	1	-0.299132039943118	7.7974479107101	0.1
109	an adult with a deadly contagious disease	an elderly person	simple	1	25	1	simplified	impersonal	is	kill	is	kill	personally	k	No	7.65633716643018	N/A	-1	0.224889763779528	0.0352517867541622	0.449779527559055	-1	0.5	1	2344.475	915.735321392679	FALSE	-0.550220472440945	1	0.0674650342718346	7.58887213215835	0.5
109	a pedophile	a rapist	simple	1	22	1	simplified	impersonal	is	kill	is	kill	personally	k	No	8.08332860878638	N/A	-1	0.486515384615385	0.0358499595299147	0.973030769230769	-1	1	1	2344.475	915.735321392679	FALSE	-0.026969230769231	1	0.448357622007176	7.6349709867792	1
109	an elderly person	a mentor	simple	1	8	1	simplified	impersonal	is	kill	is	kill	personally	d	Yes	8.22550309756692	N/A	-1	0.439108333333333	0.0437438930704474	0.878216666666667	1	0.9	1	2344.475	915.735321392679	TRUE	0.121783333333333	1	0.256006471311614	7.9694966262553	0.9
109	a college student	a homeless adult	simple	1	10	1	simplified	impersonal	is	kill	is	kill	personally	k	No	7.71912984090673	N/A	-1	0.608928571428571	0.0422041323232339	0.782142857142857	1	0.8	0	2344.475	915.735321392679	TRUE	0.217857142857143	0	-0.187233546335911	7.90636338724264	0.8
109	a congressman	a judge	simple	1	24	1	simplified	impersonal	is	kill	is	kill	personally	k	No	7.84541603659248	N/A	-1	0.399058558558559	0.0456927788437419	0.798117117117117	-1	0.8	1	2344.475	915.735321392679	FALSE	-0.201882882882883	1	0.241934467486368	7.60348156910612	0.8
109	a gang member	a thief	simple	1	30	1	simplified	impersonal	is	kill	is	kill	personally	k	No	7.43425738213314	N/A	-1	0.531546218487395	0.0426380366568949	0.93690756302521	1	1	0	2344.475	915.735321392679	TRUE	0.0630924369747899	0	-0.0915276276741981	7.52578500980733	1
109	a thief	a rapist	simple	1	11	1	simplified	impersonal	is	kill	is	kill	personally	d	Yes	7.77064523412918	N/A	-1	0.317369047619048	0.038302519048093	0.634738095238095	1	0.7	1	2344.475	915.735321392679	TRUE	0.365261904761905	1	-0.106427644021194	7.87707287815037	0.7
109	a nun	a rapist	simple	1	31	1	simplified	impersonal	is	kill	is	kill	personally	k	No	7.56371966841437	N/A	-1	0.93418992248062	0.0207627718902493	0.13162015503876	1	0.2	0	2344.475	915.735321392679	TRUE	0.86837984496124	0	0.0487780431735017	7.51494162524086	0.2
109	a life-saving antidote	a college student	simple	1	12	1	simplified	impersonal	is	destroy	is	kill	personally	d	Yes	7.9973268229981	N/A	-1	0.355370833333333	0.0428261833611967	0.710741666666667	1	0.8	1	2344.475	915.735321392679	TRUE	0.289258333333333	1	0.148124705208371	7.84920211778973	0.8
109	a homeless adult	a rapist	simple	1	32	1	simplified	impersonal	is	kill	is	kill	personally	d	Yes	7.33106030521863	N/A	-1	0.92284328358209	0.0211262489472413	0.154313432835821	1	0.2	1	2344.475	915.735321392679	TRUE	0.845686567164179	1	-0.173563528282994	7.50462383350163	0.2
