sn	Item1	Item2	cond	sess	trial	trial_type	title	typeOfScen	keybResp	keyDef	keybRT	rtBeep	rtDeadline	averageP	sdp	overlap	direct.xVy	overlapRound	correct	avgRT	sdRT	targetPresent	dirOverlap	correct01	res.RT	fit.RT	overlapRoundSN
1	an umbrella	8 kayaks	quantObject	1	26	1	simplified	impersonal	d	No	7.61233683716775	N/A	-1	0.252941666666667	0.0380133375708806	0.505883333333333	-1	0.6	1	3275.09166666667	2173.90402019169	FALSE	-0.494116666666667	1	-0.324197647887212	7.93653448505496	0.6
1	4 mailboxes	a pair of shoes	quantObject	1	35	1	simplified	impersonal	k	Yes	7.90211754627645	N/A	-1	0.672522222222222	0.0411209043570302	0.654955555555556	-1	0.7	0	3275.09166666667	2173.90402019169	FALSE	-0.345044444444444	0	-0.0344169387785103	7.93653448505496	0.7
1	47 wallets	9 pennies	quantObject	1	17	1	simplified	impersonal	k	Yes	7.3038432252777	N/A	-1	0.20768	0.0361599383453725	0.41536	1	0.5	1	3275.09166666667	2173.90402019169	TRUE	0.58464	1	-0.632691259791227	7.93653448506893	0.5
1	a vending machine	49 pieces of jewelry	quantObject	1	80	1	simplified	impersonal	d	No	7.40367029001237	N/A	-1	0.277556910569106	0.0402371547550233	0.555113821138211	-1	0.6	1	3275.09166666667	2173.90402019169	FALSE	-0.444886178861789	1	-0.532864195042585	7.93653448505496	0.6
1	3 umbrellas	a penny	quantObject	1	96	1	simplified	impersonal	k	Yes	7.93666015522543	N/A	-1	0.167371900826446	0.0325030547270763	0.334743801652893	1	0.4	1	3275.09166666667	2173.90402019169	TRUE	0.665256198347107	1	0.000125670170468162	7.93653448505496	0.4
1	47 umbrellas	49 staplers	quantObject	1	23	1	simplified	impersonal	k	Yes	7.67647364638916	N/A	-1	0.405837209302326	0.0444499600291606	0.811674418604651	1	0.9	1	3275.09166666667	2173.90402019169	TRUE	0.188325581395349	1	-0.260060838665803	7.93653448505496	0.9
1	47 teddy bears	49 staplers	quantObject	1	94	1	simplified	impersonal	d	No	8.08085641964099	N/A	-1	0.34932	0.0423579484370501	0.69864	1	0.7	0	3275.09166666667	2173.90402019169	TRUE	0.30136	0	0.144321934586028	7.93653448505496	0.7
1	9 paper plates	6 ounces of gold	quantObject	1	102	1	simplified	impersonal	d	No	7.87321705486274	N/A	-1	0.0727913385826772	0.0229861816036739	0.145582677165354	-1	0.2	1	3275.09166666667	2173.90402019169	FALSE	-0.854417322834646	1	-0.0633174301922166	7.93653448505496	0.2
1	a paper plate	47 wedding rings	quantObject	1	81	1	simplified	impersonal	d	No	7.89394513823596	N/A	-1	0.0381991869918699	0.0161383404758983	0.0763983739837398	-1	0.1	1	3275.09166666667	2173.90402019169	FALSE	-0.92360162601626	1	-0.0425893468189988	7.93653448505496	0.1
1	a passport	8 kayaks	quantObject	1	21	1	simplified	impersonal	k	Yes	7.96623977655947	N/A	-1	0.570252136752137	0.0467322612912667	0.859495726495727	1	0.9	1	3275.09166666667	2173.90402019169	TRUE	0.140504273504273	1	0.0297052915044809	7.93653448505499	0.9
1	6 ounces of gold	a pencil	quantObject	1	50	1	simplified	impersonal	k	Yes	7.38709023565676	N/A	-1	0.0806024590163934	0.0236825331716678	0.161204918032787	1	0.2	1	3275.09166666667	2173.90402019169	TRUE	0.838795081967213	1	-0.549444249398201	7.93653448505496	0.2
1	a pair of shoes	50 dollar bills	quantObject	1	106	1	simplified	impersonal	d	No	8.28526113406895	N/A	-1	0.510186991869919	0.0437145194519274	0.979626016260163	1	1	0	3275.09166666667	2173.90402019169	TRUE	0.020373983739837	0	0.34872664901399	7.93653448505496	1
1	3 umbrellas	48 mailboxes	quantObject	1	15	1	simplified	impersonal	k	Yes	8.23456499326713	N/A	-1	0.443177419354839	0.0458037841700069	0.886354838709677	-1	0.9	0	3275.09166666667	2173.90402019169	FALSE	-0.113645161290323	0	0.298030507901322	7.93653448536581	0.9
1	a dollar bill	52 toothbrushes	quantObject	1	107	1	simplified	impersonal	d	No	8.14960173573616	N/A	-1	0.287512	0.0389662446769537	0.575024	-1	0.6	1	3275.09166666667	2173.90402019169	FALSE	-0.424976	1	0.213067250681197	7.93653448505496	0.6
1	a piece of jewelry	48 pairs of shoes	quantObject	1	7	1	simplified	impersonal	d	No	8.84563325634019	N/A	-1	0.453168067226891	0.0435063491150028	0.906336134453781	-1	1	1	3275.09166666667	2173.90402019169	FALSE	-0.093663865546219	1	0.909022648165083	7.9366106081751	1
1	3 teddy bears	49 staplers	quantObject	1	66	1	simplified	impersonal	d	No	8.35819745992578	N/A	-1	0.564675572519084	0.0430671189704213	0.870648854961832	1	0.9	0	3275.09166666667	2173.90402019169	TRUE	0.129351145038168	0	0.421662974870822	7.93653448505496	0.9
1	9 smartphones	51 dinosaur fossils	quantObject	1	115	1	simplified	impersonal	d	No	8.59044365315583	N/A	-1	0.388388111888112	0.0400779448566661	0.776776223776224	-1	0.8	1	3275.09166666667	2173.90402019169	FALSE	-0.223223776223776	1	0.653909168100872	7.93653448505496	0.8
1	a wallet	53 pennies	quantObject	1	119	1	simplified	impersonal	k	Yes	7.55851674304564	N/A	-1	0.758864754098361	0.0373966579039445	0.482270491803279	1	0.5	1	3275.09166666667	2173.90402019169	TRUE	0.517729508196721	1	-0.378017742009313	7.93653448505496	0.5
1	51 dinosaur fossils	5 staplers	quantObject	1	118	1	simplified	impersonal	k	Yes	7.81075811652936	N/A	-1	0.109048	0.0287402104323489	0.218096	1	0.3	1	3275.09166666667	2173.90402019169	TRUE	0.781904	1	-0.125776368525601	7.93653448505496	0.3
1	3 teddy bears	50 videogames	quantObject	1	105	1	simplified	impersonal	d	No	7.97831096986772	N/A	-1	0.478176	0.0445712420695185	0.956352	-1	1	1	3275.09166666667	2173.90402019169	FALSE	-0.043648	1	0.0417764848127637	7.93653448505496	1
1	5 staplers	a motorcycle	quantObject	1	27	1	simplified	impersonal	k	Yes	7.50328963067508	N/A	-1	0.822974789915966	0.0339759767073764	0.354050420168067	-1	0.4	0	3275.09166666667	2173.90402019169	FALSE	-0.645949579831933	0	-0.433244854379876	7.93653448505496	0.4
1	a rock	9 passports	quantObject	1	89	1	simplified	impersonal	d	No	7.80669637252118	N/A	-1	0.139352941176471	0.0300323289114395	0.278705882352941	-1	0.3	1	3275.09166666667	2173.90402019169	FALSE	-0.721294117647059	1	-0.129838112533779	7.93653448505496	0.3
1	8 motorcycles	5 rocks	quantObject	1	14	1	simplified	impersonal	k	Yes	7.5963923040642	N/A	-1	0.886275862068965	0.0277306073623025	0.227448275862069	1	0.3	1	3275.09166666667	2173.90402019169	TRUE	0.772551724137931	1	-0.340142182456911	7.93653448652111	0.3
1	4 mailboxes	a rock	quantObject	1	38	1	simplified	impersonal	d	No	7.86441990499457	N/A	-1	0.326054166666667	0.0405499740338282	0.652108333333333	1	0.7	0	3275.09166666667	2173.90402019169	TRUE	0.347891666666667	0	-0.0721145800603926	7.93653448505496	0.7
1	a pencil	5 staplers	quantObject	1	61	1	simplified	impersonal	k	Yes	8.18813341451048	N/A	-1	0.44015350877193	0.0430851517702319	0.88030701754386	-1	0.9	0	3275.09166666667	2173.90402019169	FALSE	-0.11969298245614	0	0.25159892945552	7.93653448505496	0.9
1	3 umbrellas	3 water bottles	quantObject	1	84	1	simplified	impersonal	d	No	7.54486106865846	N/A	-1	0.48951724137931	0.0448175319227647	0.979034482758621	1	1	0	3275.09166666667	2173.90402019169	TRUE	0.020965517241379	0	-0.3916734163965	7.93653448505496	1
1	a passport	51 dinosaur fossils	quantObject	1	67	1	simplified	impersonal	d	No	7.61972421378267	N/A	-1	0.365106299212598	0.0405155670256598	0.730212598425197	-1	0.8	1	3275.09166666667	2173.90402019169	FALSE	-0.269787401574803	1	-0.316810271272288	7.93653448505496	0.8
1	52 kayaks	a dollar bill	quantObject	1	112	1	simplified	impersonal	k	Yes	8.01565761455734	N/A	-1	0.182021739130435	0.03434484691928	0.36404347826087	1	0.4	1	3275.09166666667	2173.90402019169	TRUE	0.63595652173913	1	0.0791231295023813	7.93653448505496	0.4
1	a stapler	52 kayaks	quantObject	1	59	1	simplified	impersonal	d	No	7.41878088275079	N/A	-1	0.230409482758621	0.0388364595259867	0.460818965517241	-1	0.5	1	3275.09166666667	2173.90402019169	FALSE	-0.539181034482759	1	-0.517753602304164	7.93653448505496	0.5
1	8 kayaks	8 toothbrushes	quantObject	1	11	1	simplified	impersonal	k	Yes	7.80913539812054	N/A	-1	0.732360869565217	0.0401037951126245	0.535278260869565	1	0.6	1	3275.09166666667	2173.90402019169	TRUE	0.464721739130435	1	-0.127399240763145	7.93653463888368	0.6
1	a smartphone	47 umbrellas	quantObject	1	117	1	simplified	impersonal	k	Yes	7.77821147451249	N/A	-1	0.70752	0.0403860450234067	0.58496	1	0.6	1	3275.09166666667	2173.90402019169	TRUE	0.41504	1	-0.158323010542465	7.93653448505496	0.6
1	3 teddy bears	an ounce of gold	quantObject	1	49	1	simplified	impersonal	d	No	7.72223474470961	N/A	-1	0.763142857142857	0.0367337620389136	0.473714285714286	-1	0.5	1	3275.09166666667	2173.90402019169	FALSE	-0.526285714285714	1	-0.214299740345351	7.93653448505496	0.5
1	9 vending machines	an ounce of gold	quantObject	1	97	1	simplified	impersonal	d	No	8.16593213732158	N/A	-1	0.734455752212389	0.0404678556236797	0.531088495575221	-1	0.6	1	3275.09166666667	2173.90402019169	FALSE	-0.468911504424779	1	0.229397652266627	7.93653448505496	0.6
1	a dinosaur fossil	a dollar bill	quantObject	1	77	1	simplified	impersonal	k	Yes	7.91022370709734	N/A	-1	0.865894736842105	0.0307466361692121	0.268210526315789	1	0.3	1	3275.09166666667	2173.90402019169	TRUE	0.731789473684211	1	-0.0263107779576135	7.93653448505496	0.3
1	a motorcycle	a passport	quantObject	1	25	1	simplified	impersonal	d	No	8.44591198941127	N/A	-1	0.484070247933884	0.0445074096925008	0.968140495867769	-1	1	1	3275.09166666667	2173.90402019169	FALSE	-0.031859504132231	1	0.509377504356316	7.93653448505496	1
1	a penny	9 paper plates	quantObject	1	22	1	simplified	impersonal	d	No	7.99699040583765	N/A	-1	0.35364	0.0398242183648137	0.70728	-1	0.8	1	3275.09166666667	2173.90402019169	FALSE	-0.29272	1	0.0604559207826858	7.93653448505496	0.8
1	3 teddy bears	49 pieces of jewelry	quantObject	1	109	1	simplified	impersonal	d	No	7.72090525193678	N/A	-1	0.242766393442623	0.0383207026691888	0.485532786885246	-1	0.5	1	3275.09166666667	2173.90402019169	FALSE	-0.514467213114754	1	-0.215629233118179	7.93653448505496	0.5
1	53 paper plates	a videogame	quantObject	1	30	1	simplified	impersonal	k	Yes	8.37885024179449	N/A	-1	0.540294871794872	0.045047290731412	0.919410256410256	-1	1	0	3275.09166666667	2173.90402019169	FALSE	-0.080589743589744	0	0.442315756739534	7.93653448505496	1
1	53 vending machines	48 mailboxes	quantObject	1	98	1	simplified	impersonal	k	Yes	7.8336002236611	N/A	-1	0.408403100775194	0.0428459880359338	0.816806201550388	1	0.9	1	3275.09166666667	2173.90402019169	TRUE	0.183193798449612	1	-0.102934261393854	7.93653448505496	0.9
1	a motorcycle	7 dinosaur fossils	quantObject	1	62	1	simplified	impersonal	d	No	7.95997452808054	N/A	-1	0.368061475409836	0.0433965640604565	0.736122950819672	-1	0.8	1	3275.09166666667	2173.90402019169	FALSE	-0.263877049180328	1	0.0234400430255786	7.93653448505496	0.8
1	an ounce of gold	a water bottle	quantObject	1	2	1	simplified	impersonal	k	Yes	8.23483028044206	N/A	-1	0.245900793650794	0.0365235955943752	0.491801587301587	1	0.5	1	3275.09166666667	2173.90402019169	TRUE	0.508198412698413	1	0.120625221037695	8.11420505940436	0.5
1	4 pairs of shoes	9 pennies	quantObject	1	3	1	simplified	impersonal	k	Yes	7.79852305362521	N/A	-1	0.796885964912281	0.0374451452669445	0.406228070175439	1	0.5	1	3275.09166666667	2173.90402019169	TRUE	0.593771929824561	1	-0.175681440190137	7.97420449381534	0.5
1	47 wallets	53 smartphones	quantObject	1	58	1	simplified	impersonal	k	Yes	8.36776467792431	N/A	-1	0.60325652173913	0.04376196748192	0.793486956521739	-1	0.8	0	3275.09166666667	2173.90402019169	FALSE	-0.206513043478261	0	0.43123019286935	7.93653448505496	0.8
1	53 pennies	6 ounces of gold	quantObject	1	114	1	simplified	impersonal	d	No	8.00503334463711	N/A	-1	0.919903225806452	0.0237760592399265	0.160193548387097	-1	0.2	1	3275.09166666667	2173.90402019169	FALSE	-0.839806451612903	1	0.068498859582153	7.93653448505496	0.2
1	a penny	9 vending machines	quantObject	1	48	1	simplified	impersonal	d	No	7.62608275807238	N/A	-1	0.174534482758621	0.0330839249768026	0.349068965517241	-1	0.4	1	3275.09166666667	2173.90402019169	FALSE	-0.650931034482759	1	-0.310451726982578	7.93653448505496	0.4
1	a piece of jewelry	52 motorcycles	quantObject	1	93	1	simplified	impersonal	d	No	8.30943074214033	N/A	-1	0.434764227642276	0.0439062698487412	0.869528455284553	-1	0.9	1	3275.09166666667	2173.90402019169	FALSE	-0.130471544715447	1	0.372896257085372	7.93653448505496	0.9
1	8 motorcycles	48 mailboxes	quantObject	1	110	1	simplified	impersonal	k	Yes	8.15536212032814	N/A	-1	0.769243902439024	0.0380281801728084	0.461512195121951	1	0.5	1	3275.09166666667	2173.90402019169	TRUE	0.538487804878049	1	0.218827635273177	7.93653448505496	0.5
1	9 vending machines	47 wallets	quantObject	1	90	1	simplified	impersonal	d	No	8.49699048409872	N/A	-1	0.402889830508475	0.0440162637049054	0.805779661016949	-1	0.9	1	3275.09166666667	2173.90402019169	FALSE	-0.194220338983051	1	0.560455999043761	7.93653448505496	0.9
1	5 staplers	6 ounces of gold	quantObject	1	103	1	simplified	impersonal	d	No	7.80832305039106	N/A	-1	0.0794958333333333	0.0232393445067912	0.158991666666667	-1	0.2	1	3275.09166666667	2173.90402019169	FALSE	-0.841008333333333	1	-0.128211434663903	7.93653448505496	0.2
1	a dinosaur fossil	53 passports	quantObject	1	55	1	simplified	impersonal	k	Yes	7.56320059235807	N/A	-1	0.573042735042735	0.0444390343661693	0.85391452991453	1	0.9	1	3275.09166666667	2173.90402019169	TRUE	0.14608547008547	1	-0.373333892696887	7.93653448505496	0.9
1	48 pairs of shoes	3 pencils	quantObject	1	69	1	simplified	impersonal	k	Yes	7.71020519443253	N/A	-1	0.12760593220339	0.0290199115388467	0.25521186440678	1	0.3	1	3275.09166666667	2173.90402019169	TRUE	0.74478813559322	1	-0.226329290622425	7.93653448505496	0.3
1	a vending machine	47 wallets	quantObject	1	99	1	simplified	impersonal	d	No	7.55013534248843	N/A	-1	0.417299242424242	0.0428796007020645	0.834598484848485	-1	0.9	1	3275.09166666667	2173.90402019169	FALSE	-0.165401515151515	1	-0.386399142566529	7.93653448505496	0.9
1	6 dollar bills	a vending machine	quantObject	1	56	1	simplified	impersonal	d	No	7.69256964806791	N/A	-1	0.637836956521739	0.0397996674862432	0.724326086956522	-1	0.8	1	3275.09166666667	2173.90402019169	FALSE	-0.275673913043478	1	-0.243964836987052	7.93653448505496	0.8
1	4 pairs of shoes	a wedding ring	quantObject	1	6	1	simplified	impersonal	d	No	8.3986348552921	N/A	-1	0.799076576576577	0.0369556871996241	0.401846846846847	-1	0.5	1	3275.09166666667	2173.90402019169	FALSE	-0.598153153153153	1	0.461741335585373	7.93689351970673	0.5
1	3 teddy bears	47 water bottles	quantObject	1	1	1	simplified	impersonal	d	No	8.76029622047005	N/A	-1	0.423472222222222	0.0430088515330158	0.846944444444444	-1	0.9	1	3275.09166666667	2173.90402019169	FALSE	-0.153055555555556	1	-0.0142214248873227	8.77451764535737	0.9
1	8 toothbrushes	3 teddy bears	quantObject	1	79	1	simplified	impersonal	k	Yes	8.23853693017177	N/A	-1	0.557081967213115	0.0433824329523093	0.88583606557377	-1	0.9	0	3275.09166666667	2173.90402019169	FALSE	-0.11416393442623	0	0.302002445116811	7.93653448505496	0.9
1	a kayak	a passport	quantObject	1	64	1	simplified	impersonal	d	No	8.48280876455441	N/A	-1	0.357556451612903	0.0411107786169396	0.715112903225806	-1	0.8	1	3275.09166666667	2173.90402019169	FALSE	-0.284887096774194	1	0.546274279499448	7.93653448505496	0.8
1	9 smartphones	50 dollar bills	quantObject	1	75	1	simplified	impersonal	k	Yes	8.73536440110389	N/A	-1	0.678329365079365	0.041153458805689	0.64334126984127	1	0.7	1	3275.09166666667	2173.90402019169	TRUE	0.35665873015873	1	0.79882991604893	7.93653448505496	0.7
1	3 pencils	47 pencils	quantObject	1	46	1	simplified	impersonal	d	No	7.83755436088108	N/A	-1	0.33629674796748	0.0417035941474994	0.672593495934959	-1	0.7	1	3275.09166666667	2173.90402019169	FALSE	-0.327406504065041	1	-0.0989801241738739	7.93653448505496	0.7
1	a rock	48 pairs of shoes	quantObject	1	41	1	simplified	impersonal	d	No	7.98173328669189	N/A	-1	0.108908695652174	0.0282979555861976	0.217817391304348	-1	0.3	1	3275.09166666667	2173.90402019169	FALSE	-0.782182608695652	1	0.0451988016369276	7.93653448505496	0.3
1	8 kayaks	47 pencils	quantObject	1	31	1	simplified	impersonal	k	Yes	7.32514895795557	N/A	-1	0.752056451612903	0.0373090681113524	0.495887096774194	1	0.5	1	3275.09166666667	2173.90402019169	TRUE	0.504112903225806	1	-0.611385527099383	7.93653448505496	0.5
1	3 water bottles	52 kayaks	quantObject	1	9	1	simplified	impersonal	d	No	7.87245515006398	N/A	-1	0.286477678571429	0.041261009996291	0.572955357142857	-1	0.6	1	3275.09166666667	2173.90402019169	FALSE	-0.427044642857143	1	-0.0640827569673839	7.93653790703136	0.6
1	9 vending machines	3 pencils	quantObject	1	5	1	simplified	impersonal	k	Yes	7.84227877911735	N/A	-1	0.270040178571429	0.0407227748257739	0.540080357142857	1	0.6	1	3275.09166666667	2173.90402019169	TRUE	0.459919642857143	1	-0.0959490926632949	7.93822787178065	0.6
1	a toothbrush	a videogame	quantObject	1	51	1	simplified	impersonal	k	Yes	8.31385226739821	N/A	-1	0.5127875	0.0435566195450189	0.974425	1	1	1	3275.09166666667	2173.90402019169	TRUE	0.025575	1	0.377317782343249	7.93653448505496	1
1	7 dinosaur fossils	47 wallets	quantObject	1	91	1	simplified	impersonal	k	Yes	7.86557175768479	N/A	-1	0.716181451612903	0.0386859970995981	0.567637096774193	1	0.6	1	3275.09166666667	2173.90402019169	TRUE	0.432362903225807	1	-0.0709627273701674	7.93653448505496	0.6
1	51 dinosaur fossils	8 toothbrushes	quantObject	1	108	1	simplified	impersonal	k	Yes	7.62364194651157	N/A	-1	0.156648	0.0316491669047665	0.313296	1	0.4	1	3275.09166666667	2173.90402019169	TRUE	0.686704	1	-0.312892538543387	7.93653448505496	0.4
1	53 passports	3 water bottles	quantObject	1	74	1	simplified	impersonal	d	No	8.5143892640835	N/A	-1	0.2834125	0.0395628885349966	0.566825	1	0.6	0	3275.09166666667	2173.90402019169	TRUE	0.433175	0	0.577854779028545	7.93653448505496	0.6
1	a pencil	49 pieces of jewelry	quantObject	1	33	1	simplified	impersonal	d	No	7.77317368048254	N/A	-1	0.148635964912281	0.0327606834217492	0.297271929824561	-1	0.3	1	3275.09166666667	2173.90402019169	FALSE	-0.702728070175439	1	-0.163360804572422	7.93653448505496	0.3
1	53 vending machines	52 motorcycles	quantObject	1	29	1	simplified	impersonal	d	No	7.6004023345004	N/A	-1	0.623039682539683	0.0426097469347625	0.753920634920635	-1	0.8	1	3275.09166666667	2173.90402019169	FALSE	-0.246079365079365	1	-0.336132150554558	7.93653448505496	0.8
1	a passport	50 ounces of gold	quantObject	1	52	1	simplified	impersonal	d	No	7.82684209815829	N/A	-1	0.333633620689655	0.0422247846440323	0.66726724137931	-1	0.7	1	3275.09166666667	2173.90402019169	FALSE	-0.33273275862069	1	-0.109692386896665	7.93653448505496	0.7
1	9 smartphones	3 water bottles	quantObject	1	85	1	simplified	impersonal	k	Yes	8.34877453979127	N/A	-1	0.759858778625954	0.0364045081393446	0.480282442748092	1	0.5	1	3275.09166666667	2173.90402019169	TRUE	0.519717557251908	1	0.412240054736316	7.93653448505496	0.5
1	5 rocks	5 pieces of jewelry	quantObject	1	45	1	simplified	impersonal	d	No	7.27309259599952	N/A	-1	0.839196	0.0311351084626179	0.321608	-1	0.4	1	3275.09166666667	2173.90402019169	FALSE	-0.678392	1	-0.663441889055436	7.93653448505496	0.4
1	9 paper plates	an ounce of gold	quantObject	1	76	1	simplified	impersonal	d	No	7.37713371283395	N/A	-1	0.889609756097561	0.0269188930201993	0.220780487804878	-1	0.3	1	3275.09166666667	2173.90402019169	FALSE	-0.779219512195122	1	-0.559400772221004	7.93653448505496	0.3
1	a vending machine	a wedding ring	quantObject	1	42	1	simplified	impersonal	d	No	7.98616486033273	N/A	-1	0.163036290322581	0.0325772474533286	0.326072580645161	-1	0.4	1	3275.09166666667	2173.90402019169	FALSE	-0.673927419354839	1	0.0496303752777694	7.93653448505496	0.4
1	47 wallets	a pencil	quantObject	1	44	1	simplified	impersonal	k	Yes	7.5234813125735	N/A	-1	0.227121951219512	0.0370554065963328	0.454243902439024	1	0.5	1	3275.09166666667	2173.90402019169	TRUE	0.545756097560976	1	-0.413053172481461	7.93653448505496	0.5
1	49 rocks	53 vending machines	quantObject	1	36	1	simplified	impersonal	d	No	7.743269700829	N/A	-1	0.285851145038168	0.0392137460502283	0.571702290076336	-1	0.6	1	3275.09166666667	2173.90402019169	FALSE	-0.428297709923664	1	-0.193264784225954	7.93653448505496	0.6
1	a dollar bill	a toothbrush	quantObject	1	8	1	simplified	impersonal	d	No	9.86982735104349	N/A	-1	0.354012295081967	0.0417838476019499	0.708024590163934	-1	0.8	1	3275.09166666667	2173.90402019169	FALSE	-0.291975409836066	1	1.93327672623882	7.93655062480468	0.8
1	a videogame	50 videogames	quantObject	1	13	1	simplified	impersonal	d	No	8.13035354743124	N/A	-1	0.427106837606838	0.0448073784036799	0.854213675213675	-1	0.9	1	3275.09166666667	2173.90402019169	FALSE	-0.145786324786325	1	0.193819055461189	7.93653449197005	0.9
1	a paper plate	a smartphone	quantObject	1	111	1	simplified	impersonal	d	No	7.55171221535131	N/A	-1	0.0955702479338843	0.0254786946844375	0.191140495867769	-1	0.2	1	3275.09166666667	2173.90402019169	FALSE	-0.808859504132231	1	-0.384822269703648	7.93653448505496	0.2
1	a water bottle	8 motorcycles	quantObject	1	18	1	simplified	impersonal	d	No	9.28070563463675	N/A	-1	0.257386178861789	0.0386390314081947	0.514772357723577	-1	0.6	1	3275.09166666667	2173.90402019169	FALSE	-0.485227642276423	1	1.34417114957883	7.93653448505792	0.6
1	49 rocks	53 paper plates	quantObject	1	100	1	simplified	impersonal	k	Yes	8.6031873845831	N/A	-1	0.555523622047244	0.0416349010921366	0.888952755905512	-1	0.9	0	3275.09166666667	2173.90402019169	FALSE	-0.111047244094488	0	0.66665289952814	7.93653448505496	0.9
1	3 umbrellas	3 wallets	quantObject	1	78	1	simplified	impersonal	d	No	7.76514490293613	N/A	-1	0.681730434782609	0.0427919890883041	0.636539130434783	-1	0.7	1	3275.09166666667	2173.90402019169	FALSE	-0.363460869565217	1	-0.171389582118826	7.93653448505496	0.7
1	47 teddy bears	6 dollar bills	quantObject	1	47	1	simplified	impersonal	k	Yes	7.90211754627645	N/A	-1	0.33387786259542	0.0391828448766356	0.66775572519084	1	0.7	1	3275.09166666667	2173.90402019169	TRUE	0.33224427480916	1	-0.0344169387785103	7.93653448505496	0.7
1	8 toothbrushes	49 staplers	quantObject	1	116	1	simplified	impersonal	d	No	8.00302866638473	N/A	-1	0.509095833333333	0.0434937881646847	0.981808333333333	1	1	0	3275.09166666667	2173.90402019169	TRUE	0.0181916666666671	0	0.0664941813297748	7.93653448505496	1
1	52 toothbrushes	a pencil	quantObject	1	54	1	simplified	impersonal	k	Yes	7.74196789982069	N/A	-1	0.260645161290323	0.0395869971802153	0.521290322580645	1	0.6	1	3275.09166666667	2173.90402019169	TRUE	0.478709677419355	1	-0.194566585234273	7.93653448505496	0.6
1	52 motorcycles	49 pieces of jewelry	quantObject	1	92	1	simplified	impersonal	d	No	7.7698009960039	N/A	-1	0.462042016806723	0.0442302799245044	0.924084033613445	-1	1	1	3275.09166666667	2173.90402019169	FALSE	-0.075915966386555	1	-0.166733489051062	7.93653448505496	1
1	6 ounces of gold	9 vending machines	quantObject	1	73	1	simplified	impersonal	k	Yes	7.97590836016554	N/A	-1	0.193692307692308	0.0346176644397074	0.387384615384615	1	0.4	1	3275.09166666667	2173.90402019169	TRUE	0.612615384615385	1	0.0393738751105799	7.93653448505496	0.4
1	8 motorcycles	6 ounces of gold	quantObject	1	43	1	simplified	impersonal	d	No	7.55171221535131	N/A	-1	0.397892561983471	0.0437153792916938	0.795785123966942	-1	0.8	1	3275.09166666667	2173.90402019169	FALSE	-0.204214876033058	1	-0.384822269703648	7.93653448505496	0.8
1	a piece of jewelry	a toothbrush	quantObject	1	70	1	simplified	impersonal	k	Yes	7.26473017792987	N/A	-1	0.699963114754098	0.0407526680297769	0.600073770491803	1	0.7	1	3275.09166666667	2173.90402019169	TRUE	0.399926229508197	1	-0.671804307125091	7.93653448505496	0.7
1	a toothbrush	3 teddy bears	quantObject	1	28	1	simplified	impersonal	d	No	7.85282781228174	N/A	-1	0.45654296875	0.0435881998470586	0.9130859375	-1	1	1	3275.09166666667	2173.90402019169	FALSE	-0.0869140625	1	-0.0837066727732134	7.93653448505496	1
1	an umbrella	3 teddy bears	quantObject	1	60	1	simplified	impersonal	k	Yes	8.50855599802057	N/A	-1	0.420425196850394	0.0445263171859385	0.840850393700787	-1	0.9	0	3275.09166666667	2173.90402019169	FALSE	-0.159149606299213	0	0.572021512965616	7.93653448505496	0.9
1	a stapler	52 motorcycles	quantObject	1	87	1	simplified	impersonal	d	No	7.73587031995257	N/A	-1	0.222758064516129	0.0371299061493436	0.445516129032258	-1	0.5	1	3275.09166666667	2173.90402019169	FALSE	-0.554483870967742	1	-0.200664165102391	7.93653448505496	0.5
1	a teddy bear	a smartphone	quantObject	1	37	1	simplified	impersonal	d	No	7.91607809630279	N/A	-1	0.689264957264957	0.0418884374551972	0.621470085470085	-1	0.7	1	3275.09166666667	2173.90402019169	FALSE	-0.378529914529915	1	-0.020456388752172	7.93653448505496	0.7
1	53 smartphones	a videogame	quantObject	1	57	1	simplified	impersonal	k	Yes	7.45066079621154	N/A	-1	0.247541666666667	0.0404634472247349	0.495083333333333	1	0.5	1	3275.09166666667	2173.90402019169	TRUE	0.504916666666667	1	-0.485873688843419	7.93653448505496	0.5
1	50 ounces of gold	49 staplers	quantObject	1	53	1	simplified	impersonal	k	Yes	7.6251071482389	N/A	-1	0.119516129032258	0.0277575759396223	0.239032258064516	1	0.3	1	3275.09166666667	2173.90402019169	TRUE	0.760967741935484	1	-0.311427336816058	7.93653448505496	0.3
1	8 motorcycles	3 wedding rings	quantObject	1	86	1	simplified	impersonal	d	No	7.88645727097769	N/A	-1	0.411295833333333	0.0432216272706736	0.822591666666667	-1	0.9	1	3275.09166666667	2173.90402019169	FALSE	-0.177408333333333	1	-0.0500772140772687	7.93653448505496	0.9
1	a wedding ring	a penny	quantObject	1	88	1	simplified	impersonal	k	Yes	8.0258433441509	N/A	-1	0.0395333333333333	0.0176421723788837	0.0790666666666666	1	0.1	1	3275.09166666667	2173.90402019169	TRUE	0.920933333333333	1	0.0893088590959454	7.93653448505496	0.1
1	49 rocks	53 smartphones	quantObject	1	4	1	simplified	impersonal	d	No	7.568895663407	N/A	-1	0.193258474576271	0.035236629880356	0.386516949152542	-1	0.4	1	3275.09166666667	2173.90402019169	FALSE	-0.613483050847458	1	-0.375625679152103	7.9445213425591	0.4
1	9 smartphones	5 rocks	quantObject	1	16	1	simplified	impersonal	k	Yes	7.1693500166706	N/A	-1	0.124962121212121	0.028343837152183	0.249924242424242	1	0.3	1	3275.09166666667	2173.90402019169	TRUE	0.750075757575758	1	-0.767184468450266	7.93653448512087	0.3
1	50 videogames	3 umbrellas	quantObject	1	95	1	simplified	impersonal	k	Yes	8.20603776277881	N/A	-1	0.44658547008547	0.0457957052394296	0.89317094017094	1	0.9	1	3275.09166666667	2173.90402019169	TRUE	0.10682905982906	1	0.269503277723857	7.93653448505496	0.9
1	7 dinosaur fossils	a passport	quantObject	1	72	1	simplified	impersonal	k	Yes	7.74586822979227	N/A	-1	0.377577586206897	0.0451859622623355	0.755155172413793	1	0.8	1	3275.09166666667	2173.90402019169	TRUE	0.244844827586207	1	-0.190666255262689	7.93653448505496	0.8
1	a rock	a piece of jewelry	quantObject	1	32	1	simplified	impersonal	d	No	7.53529670244409	N/A	-1	0.850086206896552	0.0312921250869147	0.299827586206897	-1	0.3	1	3275.09166666667	2173.90402019169	FALSE	-0.700172413793103	1	-0.40123778261087	7.93653448505496	0.3
1	4 pairs of shoes	7 dinosaur fossils	quantObject	1	40	1	simplified	impersonal	d	No	8.03333401588006	N/A	-1	0.752241071428571	0.0380410078178971	0.495517857142857	-1	0.5	1	3275.09166666667	2173.90402019169	FALSE	-0.504482142857143	1	0.0967995308251037	7.93653448505496	0.5
1	5 rocks	9 passports	quantObject	1	113	1	simplified	impersonal	d	No	8.26693534761046	N/A	-1	0.853766393442623	0.029286594844497	0.292467213114754	-1	0.3	1	3275.09166666667	2173.90402019169	FALSE	-0.707532786885246	1	0.330400862555498	7.93653448505496	0.3
1	48 mailboxes	4 mailboxes	quantObject	1	101	1	simplified	impersonal	k	Yes	8.23137604557397	N/A	-1	0.405896153846154	0.0429071800525805	0.811792307692308	1	0.9	1	3275.09166666667	2173.90402019169	TRUE	0.188207692307692	1	0.294841560519011	7.93653448505496	0.9
1	47 pencils	7 dinosaur fossils	quantObject	1	19	1	simplified	impersonal	d	No	8.86262516940892	N/A	-1	0.869778225806452	0.0298509074294076	0.260443548387097	-1	0.3	1	3275.09166666667	2173.90402019169	FALSE	-0.739556451612903	1	0.926090684353336	7.93653448505559	0.3
1	a penny	an ounce of gold	quantObject	1	83	1	simplified	impersonal	d	No	7.13807303404435	N/A	-1	0.0736352459016393	0.0224678265016974	0.147270491803279	-1	0.2	1	3275.09166666667	2173.90402019169	FALSE	-0.852729508196721	1	-0.798461451010611	7.93653448505496	0.2
1	a passport	an ounce of gold	quantObject	1	10	1	simplified	impersonal	d	No	8.28752842311176	N/A	-1	0.465705128205128	0.043289350811412	0.931410256410256	-1	1	1	3275.09166666667	2173.90402019169	FALSE	-0.068589743589744	1	0.350993212523712	7.93653521058805	1
1	a mailbox	3 pencils	quantObject	1	104	1	simplified	impersonal	d	No	8.47470313979528	N/A	-1	0.712674107142857	0.042080369581979	0.574651785714286	1	0.6	0	3275.09166666667	2173.90402019169	TRUE	0.425348214285714	0	0.538168654740327	7.93653448505496	0.6
1	a smartphone	3 teddy bears	quantObject	1	12	1	simplified	impersonal	k	Yes	7.4599147662411	N/A	-1	0.720909448818898	0.0391179728215667	0.558181102362205	1	0.6	1	3275.09166666667	2173.90402019169	TRUE	0.441818897637795	1	-0.476619751428874	7.93653451766998	0.6
10	a smartphone	53 passports	quantObject	1	101	1	simplified	impersonal	k	No	8.06620756800626	N/A	-1	0.514865853658537	0.0442413519668514	0.970268292682927	1	1	0	3139.16666666667	1806.67508964723	TRUE	0.029731707317073	0	0.32463319081577	7.74157437719049	1
10	47 umbrellas	3 wedding rings	quantObject	1	87	1	simplified	impersonal	k	No	7.57198844937744	N/A	-1	0.795271653543307	0.0366246574056114	0.409456692913386	-1	0.5	1	3139.16666666667	1806.67508964723	FALSE	-0.590543307086614	1	-0.24473049972232	7.81671894909976	0.5
10	4 pairs of shoes	a passport	quantObject	1	118	1	simplified	impersonal	k	No	7.87473912517181	N/A	-1	0.655599099099099	0.0430512570265482	0.688801801801802	-1	0.7	1	3139.16666666667	1806.67508964723	FALSE	-0.311198198198198	1	0.224411728156853	7.65032739701496	0.7
10	a teddy bear	a dinosaur fossil	quantObject	1	46	1	simplified	impersonal	k	No	7.75061473277041	N/A	-1	0.742527272727273	0.0413941436440058	0.514945454545455	-1	0.6	1	3139.16666666667	1806.67508964723	FALSE	-0.485054545454545	1	-0.286170462635059	8.03678519540547	0.6
10	6 dollar bills	49 staplers	quantObject	1	2	1	simplified	impersonal	k	No	8.87905466204227	N/A	-1	0.462830882352941	0.0412449794047016	0.925661764705882	-1	1	1	3139.16666666667	1806.67508964723	FALSE	-0.074338235294118	1	0.606100812064822	8.27295384997745	1
10	a piece of jewelry	48 pairs of shoes	quantObject	1	33	1	simplified	impersonal	k	No	7.77946696745832	N/A	-1	0.453168067226891	0.0435063491150028	0.906336134453781	-1	1	1	3139.16666666667	1806.67508964723	FALSE	-0.093663865546219	1	-0.32709533043432	8.10656229789264	1
10	6 videogames	6 ounces of gold	quantObject	1	95	1	simplified	impersonal	k	No	7.614312146452	N/A	-1	0.1463984375	0.031948351284323	0.292796875	-1	0.3	1	3139.16666666667	1806.67508964723	FALSE	-0.707203125	1	-0.159467047271037	7.77377919372304	0.3
10	9 smartphones	a mailbox	quantObject	1	63	1	simplified	impersonal	d	Yes	7.54380286750151	N/A	-1	0.235240157480315	0.0374209113592323	0.47048031496063	1	0.5	1	3139.16666666667	1806.67508964723	TRUE	0.52951968503937	1	-0.401735347728422	7.94553821522993	0.5
10	a penny	5 staplers	quantObject	1	98	1	simplified	impersonal	k	No	7.76259604854007	N/A	-1	0.270953389830508	0.0387974142117617	0.541906779661017	-1	0.6	1	3139.16666666667	1806.67508964723	FALSE	-0.458093220338983	1	0.00491926308330282	7.75767678545677	0.6
10	51 dinosaur fossils	6 dollar bills	quantObject	1	107	1	simplified	impersonal	d	Yes	7.50218648660292	N/A	-1	0.15805	0.0305248590844276	0.3161	1	0.4	1	3139.16666666667	1806.67508964723	TRUE	0.6839	1	-0.207183074055028	7.70936956065795	0.4
10	3 wallets	a passport	quantObject	1	97	1	simplified	impersonal	k	No	7.82803803212583	N/A	-1	0.635412280701754	0.0428667543283554	0.729175438596491	-1	0.8	1	3139.16666666667	1806.67508964723	FALSE	-0.270824561403509	1	0.0649937772469729	7.76304425487886	0.8
10	52 kayaks	a toothbrush	quantObject	1	60	1	simplified	impersonal	d	Yes	7.88457651059632	N/A	-1	0.293064102564103	0.0413328986938843	0.586128205128205	1	0.6	1	3139.16666666667	1806.67508964723	TRUE	0.413871794871795	1	-0.0770641128998779	7.9616406234962	0.6
10	an umbrella	47 umbrellas	quantObject	1	94	1	simplified	impersonal	k	No	7.76811037852599	N/A	-1	0.38420564516129	0.0437507688422182	0.768411290322581	-1	0.8	1	3139.16666666667	1806.67508964723	FALSE	-0.231588709677419	1	-0.0110362846191396	7.77914666314513	0.8
10	a pair of shoes	3 teddy bears	quantObject	1	79	1	simplified	impersonal	d	Yes	7.75018416225784	N/A	-1	0.583131386861314	0.0400764655697518	0.833737226277372	1	0.9	1	3139.16666666667	1806.67508964723	TRUE	0.166262773722628	1	-0.109474542218647	7.85965870447648	0.9
10	53 passports	51 dinosaur fossils	quantObject	1	48	1	simplified	impersonal	k	No	8.56636423542269	N/A	-1	0.649837121212121	0.042394811391934	0.700325757575758	-1	0.8	1	3139.16666666667	1806.67508964723	FALSE	-0.299674242424242	1	0.5403139788614	8.02605025656129	0.8
10	47 umbrellas	3 pencils	quantObject	1	105	1	simplified	impersonal	d	Yes	7.5076900778199	N/A	-1	0.234397540983607	0.0361836040643017	0.468795081967213	1	0.5	1	3139.16666666667	1806.67508964723	TRUE	0.531204918032787	1	-0.212414421682229	7.72010449950213	0.5
10	50 videogames	3 water bottles	quantObject	1	52	1	simplified	impersonal	d	Yes	7.78239033558746	N/A	-1	0.448659482758621	0.046093577761611	0.897318965517241	1	0.9	1	3139.16666666667	1806.67508964723	TRUE	0.102681034482759	1	-0.222190043285467	8.00458037887293	0.9
10	53 pennies	3 pencils	quantObject	1	50	1	simplified	impersonal	d	Yes	8.0684029585697	N/A	-1	0.398823529411765	0.0449182829283465	0.797647058823529	1	0.8	1	3139.16666666667	1806.67508964723	TRUE	0.202352941176471	1	0.053087640852592	8.01531531771711	0.8
10	9 paper plates	48 pairs of shoes	quantObject	1	38	1	simplified	impersonal	k	No	8.00670084544037	N/A	-1	0.123684426229508	0.0306037298055638	0.247368852459016	-1	0.3	1	3139.16666666667	1806.67508964723	FALSE	-0.752631147540984	1	-0.0730241053418244	8.07972495078219	0.3
10	4 pairs of shoes	an ounce of gold	quantObject	1	92	1	simplified	impersonal	k	No	8.06526520889773	N/A	-1	0.676318584070796	0.0433756963473376	0.647362831858407	-1	0.7	1	3139.16666666667	1806.67508964723	FALSE	-0.352637168141593	1	0.275383606908425	7.78988160198931	0.7
10	50 videogames	48 mailboxes	quantObject	1	115	1	simplified	impersonal	d	Yes	8.06495089174914	N/A	-1	0.47424	0.0443555387050345	0.94848	1	1	1	3139.16666666667	1806.67508964723	TRUE	0.05152	1	0.398521086467914	7.66642980528123	1
10	47 wallets	3 wedding rings	quantObject	1	120	1	simplified	impersonal	d	Yes	8.24328252304838	N/A	-1	0.70194140625	0.0396907358719885	0.5961171875	-1	0.6	0	3139.16666666667	1806.67508964723	FALSE	-0.4038828125	0	0.603690064877599	7.63959245817078	0.6
10	53 vending machines	52 toothbrushes	quantObject	1	14	1	simplified	impersonal	d	Yes	7.84149292446001	N/A	-1	0.4360546875	0.0436571293881223	0.872109375	1	0.9	1	3139.16666666667	1806.67508964723	TRUE	0.127890625	1	-0.367051292452349	8.20854421691236	0.9
10	47 wallets	3 teddy bears	quantObject	1	36	1	simplified	impersonal	d	Yes	7.8804263442924	N/A	-1	0.373110687022901	0.0414066140488316	0.746221374045802	1	0.8	1	3139.16666666667	1806.67508964723	TRUE	0.253778625954198	1	-0.210033545333974	8.09045988962637	0.8
10	47 water bottles	8 toothbrushes	quantObject	1	53	1	simplified	impersonal	d	Yes	7.3178761986265	N/A	-1	0.372865217391304	0.0454996278331719	0.745730434782609	1	0.8	1	3139.16666666667	1806.67508964723	TRUE	0.254269565217391	1	-0.68133671082434	7.99921290945084	0.8
10	3 pencils	4 pairs of shoes	quantObject	1	67	1	simplified	impersonal	k	No	7.77653502818524	N/A	-1	0.794973214285714	0.0371711376742966	0.410053571428571	-1	0.5	1	3139.16666666667	1806.67508964723	FALSE	-0.589946428571429	1	-0.147533309356329	7.92406833754157	0.5
10	49 pieces of jewelry	47 wedding rings	quantObject	1	17	1	simplified	impersonal	k	No	8.19643681123503	N/A	-1	0.399890756302521	0.0452424963605884	0.799781512605042	-1	0.8	1	3139.16666666667	1806.67508964723	FALSE	-0.200218487394958	1	0.00399500258893681	8.19244180864609	0.8
10	47 teddy bears	a pencil	quantObject	1	106	1	simplified	impersonal	d	Yes	7.54062152865715	N/A	-1	0.237	0.0379918659046801	0.474	1	0.5	1	3139.16666666667	1806.67508964723	TRUE	0.526	1	-0.17411550142289	7.71473703008004	0.5
10	a wedding ring	9 passports	quantObject	1	28	1	simplified	impersonal	k	No	8.50207955360619	N/A	-1	0.683446280991736	0.043057243959435	0.633107438016529	1	0.7	0	3139.16666666667	1806.67508964723	TRUE	0.366892561983471	0	0.368679908603092	8.1333996450031	0.7
10	48 pairs of shoes	a vending machine	quantObject	1	30	1	simplified	impersonal	d	Yes	8.41094339157353	N/A	-1	0.323285714285714	0.0419180926217891	0.646571428571429	1	0.7	1	3139.16666666667	1806.67508964723	TRUE	0.353428571428571	1	0.288278685414612	8.12266470615891	0.7
10	a videogame	a pencil	quantObject	1	57	1	simplified	impersonal	d	Yes	7.3375877435386	N/A	-1	0.36184188034188	0.044419947185212	0.723683760683761	1	0.8	1	3139.16666666667	1806.67508964723	TRUE	0.276316239316239	1	-0.640155288223878	7.97774303176247	0.8
10	53 smartphones	a stapler	quantObject	1	39	1	simplified	impersonal	d	Yes	7.900636613018	N/A	-1	0.222815315315315	0.0393181485826762	0.445630630630631	1	0.5	1	3139.16666666667	1806.67508964723	TRUE	0.554369369369369	1	-0.173720868342096	8.0743574813601	0.5
10	9 passports	a vending machine	quantObject	1	80	1	simplified	impersonal	d	Yes	7.51534457118044	N/A	-1	0.316961538461538	0.0403571335063836	0.633923076923077	1	0.7	1	3139.16666666667	1806.67508964723	TRUE	0.366076923076923	1	-0.338946663873958	7.85429123505439	0.7
10	3 teddy bears	47 teddy bears	quantObject	1	41	1	simplified	impersonal	k	No	8.16905314992734	N/A	-1	0.416145669291339	0.0439727557823067	0.832291338582677	-1	0.9	1	3139.16666666667	1806.67508964723	FALSE	-0.167708661417323	1	0.105430607411423	8.06362254251592	0.9
10	5 rocks	a dollar bill	quantObject	1	45	1	simplified	impersonal	k	No	8.35443894011481	N/A	-1	0.497046610169492	0.0452901357398321	0.994093220338983	1	1	0	3139.16666666667	1806.67508964723	TRUE	0.00590677966101705	0	0.312286275287253	8.04215266482756	1
10	a vending machine	a dollar bill	quantObject	1	93	1	simplified	impersonal	d	Yes	7.7621706071382	N/A	-1	0.282724409448819	0.0385944772961891	0.565448818897638	1	0.6	1	3139.16666666667	1806.67508964723	TRUE	0.434551181102362	1	-0.0223435254290134	7.78451413256722	0.6
10	3 water bottles	47 wallets	quantObject	1	43	1	simplified	impersonal	k	No	7.65822752616135	N/A	-1	0.34344262295082	0.0408780372878002	0.686885245901639	-1	0.7	1	3139.16666666667	1806.67508964723	FALSE	-0.313114754098361	1	-0.394660077510388	8.05288760367174	0.7
10	8 kayaks	9 paper plates	quantObject	1	114	1	simplified	impersonal	d	Yes	7.49164547360513	N/A	-1	0.839143442622951	0.0321261406283788	0.321713114754098	1	0.4	1	3139.16666666667	1806.67508964723	TRUE	0.678286885245902	1	-0.180151801098186	7.67179727470332	0.4
10	a mailbox	a motorcycle	quantObject	1	22	1	simplified	impersonal	k	No	8.02420748577858	N/A	-1	0.259692307692308	0.0392945691679582	0.519384615384615	-1	0.6	1	3139.16666666667	1806.67508964723	FALSE	-0.480615384615385	1	-0.141396975757061	8.16560446153564	0.6
10	a teddy bear	a kayak	quantObject	1	7	1	simplified	impersonal	k	No	8.95454448838672	N/A	-1	0.603808943089431	0.0437066987745328	0.792382113821138	-1	0.8	1	3139.16666666667	1806.67508964723	FALSE	-0.207617886178862	1	0.708427985519728	8.24611650286699	0.8
10	a passport	a pair of shoes	quantObject	1	31	1	simplified	impersonal	d	Yes	7.52940645783701	N/A	-1	0.3158203125	0.0399030368213048	0.631640625	1	0.7	1	3139.16666666667	1806.67508964723	TRUE	0.368359375	1	-0.587890778899812	8.11729723673682	0.7
10	a stapler	49 staplers	quantObject	1	64	1	simplified	impersonal	k	No	8.13534694890671	N/A	-1	0.44743253968254	0.0412247760123005	0.894865079365079	-1	0.9	1	3139.16666666667	1806.67508964723	FALSE	-0.105134920634921	1	0.195176203098866	7.94017074580784	0.9
10	a water bottle	47 umbrellas	quantObject	1	58	1	simplified	impersonal	k	No	8.14060704285845	N/A	-1	0.445146153846154	0.0441804572223324	0.890292307692308	-1	0.9	1	3139.16666666667	1806.67508964723	FALSE	-0.109707692307692	1	0.168231480518067	7.97237556234038	0.9
10	3 wedding rings	3 water bottles	quantObject	1	13	1	simplified	impersonal	d	Yes	7.9592759601164	N/A	-1	0.171945833333333	0.0333160488115558	0.343891666666667	1	0.4	1	3139.16666666667	1806.67508964723	TRUE	0.656108333333333	1	-0.254635726218056	8.21391168633445	0.4
10	47 wallets	a smartphone	quantObject	1	15	1	simplified	impersonal	d	Yes	7.74022952476318	N/A	-1	0.595460317460317	0.0433870833586271	0.809079365079365	-1	0.9	0	3139.16666666667	1806.67508964723	FALSE	-0.190920634920635	0	-0.46294722272709	8.20317674749027	0.9
10	a passport	a paper plate	quantObject	1	11	1	simplified	impersonal	d	Yes	8.00168997809913	N/A	-1	0.0643888888888889	0.0220742907326234	0.128777777777778	1	0.2	1	3139.16666666667	1806.67508964723	TRUE	0.871222222222222	1	-0.222956647079499	8.22464662517863	0.2
10	50 dollar bills	52 toothbrushes	quantObject	1	81	1	simplified	impersonal	d	Yes	7.86018505747217	N/A	-1	0.525385593220339	0.0439549005155206	0.949228813559322	1	1	1	3139.16666666667	1806.67508964723	TRUE	0.050771186440678	1	0.0112612918398618	7.8489237656323	1
10	47 water bottles	53 paper plates	quantObject	1	44	1	simplified	impersonal	d	Yes	7.96032362914884	N/A	-1	0.340326271186441	0.0431680265208492	0.680652542372881	1	0.7	1	3139.16666666667	1806.67508964723	TRUE	0.319347457627119	1	-0.0871965051008106	8.04752013424965	0.7
10	50 ounces of gold	9 paper plates	quantObject	1	51	1	simplified	impersonal	d	Yes	7.73499619402278	N/A	-1	0.0833811475409836	0.0234290972012885	0.166762295081967	1	0.2	1	3139.16666666667	1806.67508964723	TRUE	0.833237704918033	1	-0.274951654272236	8.00994784829502	0.2
10	9 passports	3 wedding rings	quantObject	1	113	1	simplified	impersonal	d	Yes	8.19090888118251	N/A	-1	0.384150793650794	0.0420973405486495	0.768301587301587	-1	0.8	0	3139.16666666667	1806.67508964723	FALSE	-0.231698412698413	0	0.513744137057104	7.67716474412541	0.8
10	a water bottle	5 pieces of jewelry	quantObject	1	85	1	simplified	impersonal	k	No	7.82164312623998	N/A	-1	0.316338345864662	0.040922771208257	0.632676691729323	-1	0.7	1	3139.16666666667	1806.67508964723	FALSE	-0.367323308270677	1	-0.00581076170395978	7.82745388794394	0.7
10	47 umbrellas	a dollar bill	quantObject	1	62	1	simplified	impersonal	d	Yes	7.57609734062311	N/A	-1	0.277713709677419	0.0398281038827393	0.555427419354839	1	0.6	1	3139.16666666667	1806.67508964723	TRUE	0.444572580645161	1	-0.374808344028911	7.95090568465202	0.6
10	6 videogames	a kayak	quantObject	1	100	1	simplified	impersonal	k	No	8.791638037086	N/A	-1	0.68113358778626	0.0399729369204267	0.637732824427481	-1	0.7	1	3139.16666666667	1806.67508964723	FALSE	-0.362267175572519	1	1.04469619047341	7.74694184661259	0.7
10	a paper plate	50 ounces of gold	quantObject	1	40	1	simplified	impersonal	k	No	7.83952558170468	N/A	-1	0.0631470588235294	0.0217527634905396	0.126294117647059	-1	0.2	1	3139.16666666667	1806.67508964723	FALSE	-0.873705882352941	1	-0.229464430233333	8.06899001193801	0.2
10	5 pieces of jewelry	50 dollar bills	quantObject	1	96	1	simplified	impersonal	d	Yes	8.14873480893717	N/A	-1	0.6145	0.0451072789143338	0.771	1	0.8	1	3139.16666666667	1806.67508964723	TRUE	0.229	1	0.380323084636222	7.76841172430095	0.8
10	a piece of jewelry	47 teddy bears	quantObject	1	42	1	simplified	impersonal	d	Yes	8.07527154629746	N/A	-1	0.601225	0.0443711788196254	0.79755	1	0.8	1	3139.16666666667	1806.67508964723	TRUE	0.20245	1	0.0170164732036273	8.05825507309383	0.8
10	6 dollar bills	49 pieces of jewelry	quantObject	1	74	1	simplified	impersonal	k	No	7.67508185771633	N/A	-1	0.208744094488189	0.0356825651249783	0.417488188976378	-1	0.5	1	3139.16666666667	1806.67508964723	FALSE	-0.582511811023622	1	-0.211414193870603	7.88649605158694	0.5
10	52 kayaks	6 dollar bills	quantObject	1	61	1	simplified	impersonal	d	Yes	7.81439963380449	N/A	-1	0.260650793650794	0.037577461739193	0.521301587301587	1	0.6	1	3139.16666666667	1806.67508964723	TRUE	0.478698412698413	1	-0.141873520269625	7.95627315407411	0.6
10	51 dinosaur fossils	a passport	quantObject	1	102	1	simplified	impersonal	d	Yes	8.39773375137891	N/A	-1	0.365106299212598	0.0405155670256598	0.730212598425197	1	0.8	1	3139.16666666667	1806.67508964723	TRUE	0.269787401574803	1	0.661526843610505	7.7362069077684	0.8
10	53 paper plates	52 toothbrushes	quantObject	1	59	1	simplified	impersonal	k	No	7.9844627322622	N/A	-1	0.381290322580645	0.0449741953275759	0.76258064516129	-1	0.8	1	3139.16666666667	1806.67508964723	FALSE	-0.23741935483871	1	0.017454639343903	7.96700809291829	0.8
10	a videogame	52 toothbrushes	quantObject	1	18	1	simplified	impersonal	k	No	8.16394095475501	N/A	-1	0.402826612903226	0.0436028876279335	0.805653225806452	-1	0.9	1	3139.16666666667	1806.67508964723	FALSE	-0.194346774193548	1	-0.0231333844689932	8.187074339224	0.9
10	a rock	3 water bottles	quantObject	1	117	1	simplified	impersonal	k	No	8.01135510916129	N/A	-1	0.283327433628319	0.040426220190457	0.566654867256637	-1	0.6	1	3139.16666666667	1806.67508964723	FALSE	-0.433345132743363	1	0.355660242724238	7.65569486643705	0.6
10	9 smartphones	3 water bottles	quantObject	1	76	1	simplified	impersonal	d	Yes	7.47816969415979	N/A	-1	0.759858778625954	0.0364045081393446	0.480282442748092	1	0.5	1	3139.16666666667	1806.67508964723	TRUE	0.519717557251908	1	-0.39759141858297	7.87576111274276	0.5
10	a wallet	6 ounces of gold	quantObject	1	3	1	simplified	impersonal	k	No	8.85023096558882	N/A	-1	0.269615079365079	0.0388198793375845	0.539230158730159	-1	0.6	1	3139.16666666667	1806.67508964723	FALSE	-0.460769841269841	1	0.582644585033458	8.26758638055536	0.6
10	5 rocks	a wallet	quantObject	1	112	1	simplified	impersonal	k	No	7.82684209815829	N/A	-1	0.8155125	0.0347425543574119	0.368975	-1	0.4	1	3139.16666666667	1806.67508964723	FALSE	-0.631025	1	0.144309884610793	7.6825322135475	0.4
10	a mailbox	6 videogames	quantObject	1	103	1	simplified	impersonal	k	No	7.88004820097158	N/A	-1	0.526889830508475	0.0448344813049023	0.946220338983051	1	1	0	3139.16666666667	1806.67508964723	TRUE	0.053779661016949	0	0.149208762625263	7.73083943834631	1
10	53 paper plates	a kayak	quantObject	1	54	1	simplified	impersonal	k	No	7.67832635650689	N/A	-1	0.740162698412698	0.0379662781046308	0.519674603174603	-1	0.6	1	3139.16666666667	1806.67508964723	FALSE	-0.480325396825397	1	-0.31551908352186	7.99384544002875	0.6
10	a pair of shoes	48 pairs of shoes	quantObject	1	104	1	simplified	impersonal	k	No	7.45587668749182	N/A	-1	0.351946153846154	0.0427618241330861	0.703892307692308	-1	0.8	1	3139.16666666667	1806.67508964723	FALSE	-0.296107692307692	1	-0.269595281432399	7.72547196892422	0.8
10	8 motorcycles	5 staplers	quantObject	1	56	1	simplified	impersonal	d	Yes	7.43070708254597	N/A	-1	0.864486725663717	0.0310477488664634	0.271026548672566	1	0.3	1	3139.16666666667	1806.67508964723	TRUE	0.728973451327434	1	-0.552403418638596	7.98311050118456	0.3
10	51 dinosaur fossils	9 smartphones	quantObject	1	25	1	simplified	impersonal	d	Yes	7.7621706071382	N/A	-1	0.388388111888112	0.0400779448566661	0.776776223776224	1	0.8	1	3139.16666666667	1806.67508964723	TRUE	0.223223776223776	1	-0.387331446131163	8.14950205326937	0.8
10	8 toothbrushes	9 passports	quantObject	1	73	1	simplified	impersonal	k	No	7.52940645783701	N/A	-1	0.764701680672269	0.0375167325439941	0.470596638655462	-1	0.5	1	3139.16666666667	1806.67508964723	FALSE	-0.529403361344538	1	-0.362457063172014	7.89186352100903	0.5
10	53 passports	8 motorcycles	quantObject	1	12	1	simplified	impersonal	d	Yes	8.33062262033287	N/A	-1	0.557870833333333	0.0445765442911385	0.884258333333333	-1	0.9	0	3139.16666666667	1806.67508964723	FALSE	-0.115741666666667	0	0.111343464576324	8.21927915575654	0.9
10	9 paper plates	50 ounces of gold	quantObject	1	69	1	simplified	impersonal	k	No	7.98275770201111	N/A	-1	0.0833811475409836	0.0234290972012885	0.166762295081967	-1	0.2	1	3139.16666666667	1806.67508964723	FALSE	-0.833237704918033	1	0.0694243033137241	7.91333339869739	0.2
10	8 toothbrushes	3 umbrellas	quantObject	1	35	1	simplified	impersonal	d	Yes	8.277411998949	N/A	-1	0.486184210526316	0.0454892585443057	0.972368421052632	-1	1	0	3139.16666666667	1806.67508964723	FALSE	-0.027631578947368	0	0.181584639900541	8.09582735904846	1
10	49 rocks	50 videogames	quantObject	1	47	1	simplified	impersonal	k	No	8.1341742721379	N/A	-1	0.351594488188976	0.0404515909835802	0.703188976377953	-1	0.8	1	3139.16666666667	1806.67508964723	FALSE	-0.296811023622047	1	0.102756546154525	8.03141772598338	0.8
10	49 staplers	a pair of shoes	quantObject	1	29	1	simplified	impersonal	k	No	8.27690348126706	N/A	-1	0.676485185185185	0.0384602536594665	0.64702962962963	-1	0.7	1	3139.16666666667	1806.67508964723	FALSE	-0.35297037037037	1	0.148871305686052	8.128032175581	0.7
10	8 kayaks	a paper plate	quantObject	1	70	1	simplified	impersonal	d	Yes	7.65775527113487	N/A	-1	0.112609243697479	0.0283565031491642	0.225218487394958	1	0.3	1	3139.16666666667	1806.67508964723	TRUE	0.774781512605042	1	-0.250210658140433	7.9079659292753	0.3
10	6 videogames	8 toothbrushes	quantObject	1	6	1	simplified	impersonal	d	Yes	9.37058672111828	N/A	-1	0.504308333333333	0.0427480713709902	0.991383333333333	-1	1	0	3139.16666666667	1806.67508964723	FALSE	-0.00861666666666705	0	1.11910274882919	8.25148397228909	1
10	47 water bottles	6 dollar bills	quantObject	1	82	1	simplified	impersonal	d	Yes	7.7484600238997	N/A	-1	0.348107692307692	0.0411830573159687	0.696215384615385	1	0.7	1	3139.16666666667	1806.67508964723	TRUE	0.303784615384615	1	-0.0950962723105162	7.84355629621021	0.7
10	6 ounces of gold	5 staplers	quantObject	1	86	1	simplified	impersonal	d	Yes	7.64491934495886	N/A	-1	0.0794958333333333	0.0232393445067912	0.158991666666667	1	0.2	1	3139.16666666667	1806.67508964723	TRUE	0.841008333333333	1	-0.177167073562995	7.82208641852185	0.2
10	a rock	a water bottle	quantObject	1	49	1	simplified	impersonal	k	No	7.80220931624712	N/A	-1	0.277122950819672	0.0381994807785137	0.554245901639344	-1	0.6	1	3139.16666666667	1806.67508964723	FALSE	-0.445754098360656	1	-0.218473470892079	8.0206827871392	0.6
10	a stapler	50 videogames	quantObject	1	90	1	simplified	impersonal	k	No	7.72797554210556	N/A	-1	0.398470833333333	0.0420809218181398	0.796941666666667	-1	0.8	1	3139.16666666667	1806.67508964723	FALSE	-0.203058333333333	1	-0.0726409987279313	7.80061654083349	0.8
10	a water bottle	a rock	quantObject	1	83	1	simplified	impersonal	d	Yes	7.51969240411654	N/A	-1	0.277122950819672	0.0381994807785137	0.554245901639344	1	0.6	1	3139.16666666667	1806.67508964723	TRUE	0.445754098360656	1	-0.318496422671584	7.83818882678812	0.6
10	47 wallets	50 ounces of gold	quantObject	1	19	1	simplified	impersonal	k	No	7.90838715929004	N/A	-1	0.250778225806452	0.0385753027811297	0.501556451612903	-1	0.6	1	3139.16666666667	1806.67508964723	FALSE	-0.498443548387097	1	-0.273319710511868	8.18170686980191	0.6
10	47 water bottles	53 pennies	quantObject	1	16	1	simplified	impersonal	d	Yes	7.68708015578313	N/A	-1	0.310175	0.042031815908292	0.62035	1	0.7	1	3139.16666666667	1806.67508964723	TRUE	0.37965	1	-0.510729122285047	8.19780927806818	0.7
10	6 dollar bills	a piece of jewelry	quantObject	1	75	1	simplified	impersonal	k	No	7.99091546309133	N/A	-1	0.737160305343511	0.0386941362370473	0.525679389312977	-1	0.6	1	3139.16666666667	1806.67508964723	FALSE	-0.474320610687023	1	0.109786880926479	7.88112858216485	0.6
10	6 dollar bills	a passport	quantObject	1	9	1	simplified	impersonal	k	No	8.75825524323279	N/A	-1	0.81062890625	0.0336290863105993	0.3787421875	-1	0.4	1	3139.16666666667	1806.67508964723	FALSE	-0.6212578125	1	0.522873679209978	8.23538156402281	0.4
10	3 teddy bears	a stapler	quantObject	1	99	1	simplified	impersonal	d	Yes	7.48268182815465	N/A	-1	0.395640625	0.042645182381253	0.79128125	1	0.8	1	3139.16666666667	1806.67508964723	TRUE	0.20871875	1	-0.269627487880025	7.75230931603468	0.8
10	3 wedding rings	49 staplers	quantObject	1	78	1	simplified	impersonal	d	Yes	7.85515700588134	N/A	-1	0.86797265625	0.0304109046773389	0.2640546875	1	0.3	1	3139.16666666667	1806.67508964723	TRUE	0.7359453125	1	-0.00986916801723048	7.86502617389857	0.3
10	47 wallets	a pair of shoes	quantObject	1	24	1	simplified	impersonal	d	Yes	7.81278281857758	N/A	-1	0.453551851851852	0.0411647715947827	0.907103703703704	1	1	1	3139.16666666667	1806.67508964723	TRUE	0.092896296296296	1	-0.342086704113877	8.15486952269146	1
10	5 rocks	48 pairs of shoes	quantObject	1	91	1	simplified	impersonal	k	No	7.58984151218266	N/A	-1	0.118516949152542	0.0292829595565461	0.237033898305085	-1	0.3	1	3139.16666666667	1806.67508964723	FALSE	-0.762966101694915	1	-0.205407559228743	7.7952490714114	0.3
10	47 teddy bears	8 toothbrushes	quantObject	1	116	1	simplified	impersonal	d	Yes	8.74989095553526	N/A	-1	0.361754310344828	0.0428927383581276	0.723508620689655	1	0.8	1	3139.16666666667	1806.67508964723	TRUE	0.276491379310345	1	1.08882861967612	7.66106233585914	0.8
10	a piece of jewelry	50 dollar bills	quantObject	1	32	1	simplified	impersonal	k	No	8.57734711423598	N/A	-1	0.595141592920354	0.0457212127667975	0.809716814159292	1	0.9	0	3139.16666666667	1806.67508964723	TRUE	0.190283185840708	0	0.465417346921249	8.11192976731473	0.9
10	8 toothbrushes	a pencil	quantObject	1	109	1	simplified	impersonal	d	Yes	7.25347038268453	N/A	-1	0.348201754385965	0.0434644710499729	0.69640350877193	1	0.7	1	3139.16666666667	1806.67508964723	TRUE	0.30359649122807	1	-0.445164239129244	7.69863462181377	0.7
10	a pair of shoes	a stapler	quantObject	1	65	1	simplified	impersonal	d	Yes	7.47873482556787	N/A	-1	0.700606060606061	0.0389212572688694	0.598787878787879	1	0.6	1	3139.16666666667	1806.67508964723	TRUE	0.401212121212121	1	-0.456068450817876	7.93480327638575	0.6
10	a pair of shoes	49 rocks	quantObject	1	110	1	simplified	impersonal	d	Yes	7.84188592898462	N/A	-1	0.737669064748201	0.0361645692096338	0.524661870503597	1	0.6	1	3139.16666666667	1806.67508964723	TRUE	0.475338129496403	1	0.148618776592942	7.69326715239168	0.6
10	53 smartphones	3 water bottles	quantObject	1	119	1	simplified	impersonal	d	Yes	7.76004068088038	N/A	-1	0.265289719626168	0.0411027424809741	0.530579439252336	1	0.6	1	3139.16666666667	1806.67508964723	TRUE	0.469420560747664	1	0.115080753287513	7.64495992759287	0.6
10	50 dollar bills	a motorcycle	quantObject	1	111	1	simplified	impersonal	k	No	7.92624152317096	N/A	-1	0.645215517241379	0.0420441041409949	0.709568965517241	-1	0.8	1	3139.16666666667	1806.67508964723	FALSE	-0.290431034482759	1	0.238341840201372	7.68789968296959	0.8
10	3 wedding rings	3 wallets	quantObject	1	55	1	simplified	impersonal	d	Yes	7.62217459481762	N/A	-1	0.274533613445378	0.0393717623416017	0.549067226890756	1	0.6	1	3139.16666666667	1806.67508964723	TRUE	0.450932773109244	1	-0.366303375789032	7.98847797060665	0.6
10	5 pieces of jewelry	a wedding ring	quantObject	1	37	1	simplified	impersonal	k	No	8.08209327817838	N/A	-1	0.720786290322581	0.0376670397881422	0.558427419354839	-1	0.6	1	3139.16666666667	1806.67508964723	FALSE	-0.441572580645161	1	-0.00299914202590124	8.08509242020428	0.6
10	8 kayaks	a pencil	quantObject	1	88	1	simplified	impersonal	d	Yes	7.58069975222456	N/A	-1	0.177016949152542	0.0338913652318304	0.354033898305085	1	0.4	1	3139.16666666667	1806.67508964723	TRUE	0.645966101694915	1	-0.230651727453107	7.81135147967767	0.4
10	3 wedding rings	49 pieces of jewelry	quantObject	1	108	1	simplified	impersonal	d	Yes	7.97522083865341	N/A	-1	0.549243697478992	0.0456104847222551	0.901512605042017	1	1	1	3139.16666666667	1806.67508964723	TRUE	0.098487394957983	1	0.271218747417548	7.70400209123586	1
10	53 passports	a kayak	quantObject	1	66	1	simplified	impersonal	d	Yes	7.65775527113487	N/A	-1	0.415771317829457	0.042951514744064	0.831542635658915	1	0.9	1	3139.16666666667	1806.67508964723	TRUE	0.168457364341085	1	-0.271680535828795	7.92943580696366	0.9
10	49 rocks	53 smartphones	quantObject	1	68	1	simplified	impersonal	k	No	7.73455884435476	N/A	-1	0.193258474576271	0.035236629880356	0.386516949152542	-1	0.4	1	3139.16666666667	1806.67508964723	FALSE	-0.613483050847458	1	-0.184142023764723	7.91870086811948	0.4
10	48 mailboxes	53 pennies	quantObject	1	20	1	simplified	impersonal	d	Yes	7.94697135769359	N/A	-1	0.641845238095238	0.0420290648180543	0.716309523809524	1	0.8	1	3139.16666666667	1806.67508964723	TRUE	0.283690476190476	1	-0.22936804268623	8.17633940037982	0.8
10	a passport	47 wallets	quantObject	1	5	1	simplified	impersonal	k	No	9.30555963855712	N/A	-1	0.628065573770492	0.0439422734794142	0.743868852459016	1	0.8	0	3139.16666666667	1806.67508964723	TRUE	0.256131147540984	0	1.04870819684594	8.25685144171118	0.8
10	a rock	53 passports	quantObject	1	84	1	simplified	impersonal	k	No	7.39079852173568	N/A	-1	0.145923728813559	0.0310387686676381	0.291847457627119	-1	0.3	1	3139.16666666667	1806.67508964723	FALSE	-0.708152542372881	1	-0.442022835630356	7.83282135736603	0.3
10	a dollar bill	9 paper plates	quantObject	1	8	1	simplified	impersonal	d	Yes	8.98243550356026	N/A	-1	0.528146341463415	0.0439681105508265	0.943707317073171	1	1	1	3139.16666666667	1806.67508964723	TRUE	0.056292682926829	1	0.741686470115358	8.2407490334449	1
10	9 passports	a dollar bill	quantObject	1	4	1	simplified	impersonal	d	Yes	8.89781900951076	N/A	-1	0.176630081300813	0.0343800384942448	0.353260162601626	1	0.4	1	3139.16666666667	1806.67508964723	TRUE	0.646739837398374	1	0.635600098377489	8.26221891113327	0.4
10	5 pieces of jewelry	an ounce of gold	quantObject	1	72	1	simplified	impersonal	k	No	8.07402621612406	N/A	-1	0.567322834645669	0.0426567841825901	0.865354330708662	-1	0.9	1	3139.16666666667	1806.67508964723	FALSE	-0.134645669291338	1	0.176795225692944	7.89723099043112	0.9
10	47 wallets	50 dollar bills	quantObject	1	26	1	simplified	impersonal	d	Yes	8.06022424044096	N/A	-1	0.463279661016949	0.0466042780200764	0.926559322033898	1	1	1	3139.16666666667	1806.67508964723	TRUE	0.073440677966102	1	-0.0839103434063198	8.14413458384728	1
11	48 mailboxes	a motorcycle	quantObject	1	19	1	simplified	impersonal	k	Yes	8.11671562481911	N/A	-1	0.737546511627907	0.0374668234691948	0.524906976744186	-1	0.6	0	2742.00833333333	2057.87390282543	FALSE	-0.475093023255814	0	-0.0769719894065819	8.19368761422569	0.6
11	47 wedding rings	47 water bottles	quantObject	1	7	1	simplified	impersonal	d	No	8.58671925406485	N/A	-1	0.190849593495935	0.0347649013094153	0.38169918699187	1	0.4	0	2742.00833333333	2057.87390282543	TRUE	0.61830081300813	0	-0.00873216493093487	8.59545141899578	0.4
11	a vending machine	51 dinosaur fossils	quantObject	1	18	1	simplified	impersonal	d	No	7.76302130901852	N/A	-1	0.212279411764706	0.0336729962824385	0.424558823529412	-1	0.5	1	2742.00833333333	2057.87390282543	FALSE	-0.575441176470588	1	-0.458139139744235	8.22116044876275	0.5
11	a videogame	9 vending machines	quantObject	1	6	1	simplified	impersonal	d	No	8.19808924895612	N/A	-1	0.42234375	0.0453590342532231	0.8446875	-1	0.9	1	2742.00833333333	2057.87390282543	FALSE	-0.1553125	1	-0.439003045829457	8.63709229478557	0.9
11	50 ounces of gold	4 pairs of shoes	quantObject	1	118	1	simplified	impersonal	k	Yes	8.10621290261996	N/A	-1	0.225491071428571	0.0384971233328929	0.450982142857143	1	0.5	1	2742.00833333333	2057.87390282543	TRUE	0.549017857142857	1	0.666369165072236	7.43984373754773	0.5
11	4 mailboxes	a penny	quantObject	1	13	1	simplified	impersonal	k	Yes	7.73848812249465	N/A	-1	0.246996062992126	0.0375266631160968	0.493992125984252	1	0.5	1	2742.00833333333	2057.87390282543	TRUE	0.506007874015748	1	-0.635270406922036	8.37375852941668	0.5
11	a videogame	52 motorcycles	quantObject	1	24	1	simplified	impersonal	d	No	7.87929148508227	N/A	-1	0.251066115702479	0.0377860994061342	0.502132231404959	-1	0.6	1	2742.00833333333	2057.87390282543	FALSE	-0.497867768595041	1	-0.190447742292082	8.06973922737435	0.6
11	6 videogames	a penny	quantObject	1	56	1	simplified	impersonal	d	No	7.96935774201635	N/A	-1	0.241358267716535	0.0375568628703667	0.482716535433071	1	0.5	0	2742.00833333333	2057.87390282543	TRUE	0.517283464566929	0	0.338614006508887	7.63074373550746	0.5
11	9 vending machines	5 staplers	quantObject	1	92	1	simplified	impersonal	k	Yes	7.4500795698075	N/A	-1	0.309899082568807	0.042635146580121	0.619798165137615	1	0.7	1	2742.00833333333	2057.87390282543	TRUE	0.380201834862385	1	-0.0266200295597203	7.47669959936722	0.7
11	a wedding ring	a kayak	quantObject	1	89	1	simplified	impersonal	k	Yes	8.53227882883428	N/A	-1	0.205604838709677	0.0344815895515167	0.411209677419355	1	0.5	1	2742.00833333333	2057.87390282543	TRUE	0.588790322580645	1	1.04877936464214	7.48349946419214	0.5
11	53 vending machines	an ounce of gold	quantObject	1	86	1	simplified	impersonal	d	No	7.53689712956617	N/A	-1	0.673333333333333	0.0413788424953279	0.653333333333333	-1	0.7	1	2742.00833333333	2057.87390282543	FALSE	-0.346666666666667	1	0.0458527499552375	7.49104437961093	0.7
11	50 ounces of gold	a motorcycle	quantObject	1	29	1	simplified	impersonal	k	Yes	7.78155595923534	N/A	-1	0.325418032786885	0.0419094130347408	0.65083606557377	1	0.7	1	2742.00833333333	2057.87390282543	TRUE	0.34916393442623	1	-0.183955352674458	7.9655113119098	0.7
11	3 wedding rings	a water bottle	quantObject	1	23	1	simplified	impersonal	d	No	8.12769985281777	N/A	-1	0.200259689922481	0.0349326397603852	0.400519379844961	1	0.5	0	2742.00833333333	2057.87390282543	TRUE	0.599480620155039	0	0.0348587816159984	8.09284107120177	0.5
11	an ounce of gold	47 water bottles	quantObject	1	25	1	simplified	impersonal	d	No	8.35161075062656	N/A	-1	0.717008403361345	0.0416361522478263	0.565983193277311	1	0.6	0	2742.00833333333	2057.87390282543	TRUE	0.434016806722689	0	0.304186440376393	8.04742431025017	0.6
11	a piece of jewelry	7 dinosaur fossils	quantObject	1	11	1	simplified	impersonal	d	No	8.2872767558146	N/A	-1	0.304449579831933	0.0426894781267307	0.608899159663866	-1	0.7	1	2742.00833333333	2057.87390282543	FALSE	-0.391100840336134	1	-0.155320454918689	8.44259721073329	0.7
11	51 dinosaur fossils	3 wallets	quantObject	1	36	1	simplified	impersonal	k	Yes	7.20042489294496	N/A	-1	0.270019841269841	0.0399586369997398	0.540039682539683	1	0.6	1	2742.00833333333	2057.87390282543	TRUE	0.459960317460317	1	-0.646420735357097	7.84684562830205	0.6
11	6 videogames	a pair of shoes	quantObject	1	57	1	simplified	impersonal	d	No	7.06987412845857	N/A	-1	0.641040740740741	0.0401793180777768	0.717918518518519	-1	0.8	1	2742.00833333333	2057.87390282543	FALSE	-0.282081481481481	1	-0.553508356728544	7.62338248518712	0.8
11	53 paper plates	a mailbox	quantObject	1	62	1	simplified	impersonal	k	Yes	7.52940645783701	N/A	-1	0.590138392857143	0.0435627687207007	0.819723214285714	-1	0.9	0	2742.00833333333	2057.87390282543	FALSE	-0.180276785714286	0	-0.0607644888325005	7.59017094666951	0.9
11	47 wallets	47 umbrellas	quantObject	1	50	1	simplified	impersonal	k	Yes	7.60339933974067	N/A	-1	0.598992248062015	0.0420638499015984	0.802015503875969	1	0.9	1	2742.00833333333	2057.87390282543	TRUE	0.197984496124031	1	-0.0772952653240768	7.68069460506475	0.9
11	a videogame	49 rocks	quantObject	1	33	1	simplified	impersonal	d	No	7.43897159239586	N/A	-1	0.591118110236221	0.0431269085186847	0.817763779527559	1	0.9	0	2742.00833333333	2057.87390282543	TRUE	0.182236220472441	0	-0.455230224390617	7.89420181678648	0.9
11	3 wallets	a penny	quantObject	1	3	1	simplified	impersonal	k	Yes	9.22739412654201	N/A	-1	0.107105042016807	0.0279151199219595	0.214210084033613	1	0.3	1	2742.00833333333	2057.87390282543	TRUE	0.785789915966387	1	0.456359547322315	8.7710345792197	0.3
11	7 dinosaur fossils	a kayak	quantObject	1	114	1	simplified	impersonal	k	Yes	7.1777824161952	N/A	-1	0.252861111111111	0.0389624269401471	0.505722222222222	1	0.6	1	2742.00833333333	2057.87390282543	TRUE	0.494277777777778	1	-0.265809163619251	7.44359157981445	0.6
11	53 pennies	a dollar bill	quantObject	1	100	1	simplified	impersonal	d	No	7.08924315502751	N/A	-1	0.455525	0.0436887797193084	0.91105	1	1	0	2742.00833333333	2057.87390282543	TRUE	0.08895	0	-0.372429141267855	7.46167229629537	1
11	47 pencils	a wedding ring	quantObject	1	109	1	simplified	impersonal	d	No	7.34923082461333	N/A	-1	0.900655737704918	0.0266799119792001	0.198688524590164	-1	0.2	1	2742.00833333333	2057.87390282543	FALSE	-0.801311475409836	1	-0.0998387043336244	7.44906952894696	0.2
11	a motorcycle	3 teddy bears	quantObject	1	110	1	simplified	impersonal	d	No	7.27655640271871	N/A	-1	0.711661538461538	0.0382633253943762	0.576676923076923	1	0.6	0	2742.00833333333	2057.87390282543	TRUE	0.423323076923077	0	-0.171340312012809	7.44789671473152	0.6
11	a teddy bear	5 staplers	quantObject	1	17	1	simplified	impersonal	k	Yes	7.69393732550927	N/A	-1	0.71790625	0.0397809400597535	0.5641875	1	0.6	1	2742.00833333333	2057.87390282543	TRUE	0.4358125	1	-0.555664776405929	8.2496021019152	0.6
11	50 ounces of gold	9 paper plates	quantObject	1	44	1	simplified	impersonal	k	Yes	7.24921505711439	N/A	-1	0.0833811475409836	0.0234290972012885	0.166762295081967	1	0.2	1	2742.00833333333	2057.87390282543	TRUE	0.833237704918033	1	-0.492976167753722	7.74219122486811	0.2
11	52 motorcycles	8 motorcycles	quantObject	1	105	1	simplified	impersonal	k	Yes	8.11372608597075	N/A	-1	0.5313375	0.0449853608756202	0.937325	-1	1	0	2742.00833333333	2057.87390282543	FALSE	-0.062675	0	0.659536867871704	7.45418921809904	1
11	6 videogames	50 dollar bills	quantObject	1	1	1	simplified	impersonal	d	No	9.66611829395794	N/A	-1	0.377162393162393	0.0457470712269426	0.754324786324786	-1	0.8	1	2742.00833333333	2057.87390282543	FALSE	-0.245675213675214	1	0.797731419295683	8.86838687466225	0.8
11	53 vending machines	49 rocks	quantObject	1	20	1	simplified	impersonal	d	No	7.9665866976384	N/A	-1	0.285851145038168	0.0392137460502283	0.571702290076336	1	0.6	0	2742.00833333333	2057.87390282543	TRUE	0.428297709923664	0	-0.200563899436594	8.167150597075	0.6
11	a piece of jewelry	49 pieces of jewelry	quantObject	1	97	1	simplified	impersonal	d	No	7.63433723562832	N/A	-1	0.387879310344828	0.04464467306321	0.775758620689655	-1	0.8	1	2742.00833333333	2057.87390282543	FALSE	-0.224241379310345	1	0.167511592691318	7.466825642937	0.8
11	an ounce of gold	9 pennies	quantObject	1	78	1	simplified	impersonal	k	Yes	8.46125755908593	N/A	-1	0.885458333333333	0.0290014206866886	0.229083333333333	1	0.3	1	2742.00833333333	2057.87390282543	TRUE	0.770916666666667	1	0.945801359384775	7.51545619970116	0.3
11	8 toothbrushes	3 pencils	quantObject	1	98	1	simplified	impersonal	k	Yes	7.56008046502183	N/A	-1	0.32165350877193	0.0420708559253436	0.64330701754386	1	0.7	1	2742.00833333333	2057.87390282543	TRUE	0.35669298245614	1	0.0950324694187312	7.4650479956031	0.7
11	a stapler	51 dinosaur fossils	quantObject	1	104	1	simplified	impersonal	d	No	7.17011954344963	N/A	-1	0.149599236641221	0.0313582721337499	0.299198473282443	-1	0.3	1	2742.00833333333	2057.87390282543	FALSE	-0.700801526717557	1	-0.285464391500771	7.4555839349504	0.3
11	9 smartphones	a motorcycle	quantObject	1	34	1	simplified	impersonal	k	Yes	7.93307977188041	N/A	-1	0.472054744525547	0.0415325987853641	0.944109489051095	1	1	1	2742.00833333333	2057.87390282543	TRUE	0.055890510948905	1	0.0552134760781362	7.87786629580228	1
11	51 dinosaur fossils	50 ounces of gold	quantObject	1	70	1	simplified	impersonal	k	Yes	7.28756064030972	N/A	-1	0.48541015625	0.0433008566003257	0.9708203125	-1	1	0	2742.00833333333	2057.87390282543	FALSE	-0.0291796875	0	-0.260107069364912	7.54766770967464	1
11	7 dinosaur fossils	9 vending machines	quantObject	1	111	1	simplified	impersonal	k	Yes	7.13009851012558	N/A	-1	0.791366071428571	0.0380240251231125	0.417267857142857	1	0.5	1	2742.00833333333	2057.87390282543	TRUE	0.582732142857143	1	-0.316665340397565	7.44676385052314	0.5
11	an ounce of gold	a stapler	quantObject	1	37	1	simplified	impersonal	k	Yes	7.85438121065236	N/A	-1	0.17003305785124	0.0321971652227018	0.340066115702479	1	0.4	1	2742.00833333333	2057.87390282543	TRUE	0.659933884297521	1	0.0222579918634001	7.83212321878896	0.4
11	52 kayaks	4 mailboxes	quantObject	1	80	1	simplified	impersonal	k	Yes	7.07918439460967	N/A	-1	0.240218487394958	0.0399568235945098	0.480436974789916	1	0.5	1	2742.00833333333	2057.87390282543	TRUE	0.519563025210084	1	-0.429520448265046	7.50870484287471	0.5
11	a toothbrush	5 staplers	quantObject	1	107	1	simplified	impersonal	k	Yes	7.63916117165917	N/A	-1	0.606783898305085	0.0429330055605878	0.786432203389831	1	0.8	1	2742.00833333333	2057.87390282543	TRUE	0.213567796610169	1	0.187620479294002	7.45154069236517	0.8
11	a motorcycle	a teddy bear	quantObject	1	81	1	simplified	impersonal	d	No	7.24565506759454	N/A	-1	0.678348739495798	0.0405387678266291	0.643302521008403	1	0.7	0	2742.00833333333	2057.87390282543	TRUE	0.356697478991597	0	-0.259845581174194	7.50550064876873	0.7
11	a wedding ring	8 motorcycles	quantObject	1	90	1	simplified	impersonal	k	Yes	7.58324752430336	N/A	-1	0.656273913043478	0.0442302875982661	0.687452173913043	1	0.7	1	2742.00833333333	2057.87390282543	TRUE	0.312547826086957	1	0.102093674023411	7.48115385027995	0.7
11	5 pieces of jewelry	5 staplers	quantObject	1	46	1	simplified	impersonal	k	Yes	7.50878717063428	N/A	-1	0.814394308943089	0.0339951782923542	0.371211382113821	1	0.4	1	2742.00833333333	2057.87390282543	TRUE	0.628788617886179	1	-0.211469062002076	7.72025623263635	0.4
11	a kayak	52 motorcycles	quantObject	1	74	1	simplified	impersonal	k	Yes	7.03790596344718	N/A	-1	0.391876923076923	0.0430523200264063	0.783753846153846	-1	0.8	0	2742.00833333333	2057.87390282543	FALSE	-0.216246153846154	0	-0.492541419737835	7.53044738318502	0.8
11	a dollar bill	an ounce of gold	quantObject	1	67	1	simplified	impersonal	k	Yes	7.34342622914737	N/A	-1	0.130479166666667	0.0301570424217013	0.260958333333333	-1	0.3	0	2742.00833333333	2057.87390282543	FALSE	-0.739041666666667	0	-0.218817210621937	7.5622434397693	0.3
11	50 ounces of gold	a rock	quantObject	1	87	1	simplified	impersonal	k	Yes	7.42892719480227	N/A	-1	0.0750434782608696	0.0236467305037227	0.150086956521739	1	0.2	1	2742.00833333333	2057.87390282543	TRUE	0.849913043478261	1	-0.0595145656348581	7.48844176043713	0.2
11	50 dollar bills	47 wedding rings	quantObject	1	58	1	simplified	impersonal	k	Yes	7.64873978895624	N/A	-1	0.204168103448276	0.0368259133637043	0.408336206896552	-1	0.5	0	2742.00833333333	2057.87390282543	FALSE	-0.591663793103448	0	0.0324678050804481	7.61627198387579	0.5
11	50 videogames	8 kayaks	quantObject	1	47	1	simplified	impersonal	d	No	7.57558465155779	N/A	-1	0.642915254237288	0.0416520558454444	0.714169491525424	-1	0.8	1	2742.00833333333	2057.87390282543	FALSE	-0.285830508474576	1	-0.134261233258028	7.70984588481582	0.8
11	a mailbox	5 staplers	quantObject	1	119	1	simplified	impersonal	k	Yes	7.01750614294126	N/A	-1	0.666509174311927	0.043494730837763	0.666981651376147	1	0.7	1	2742.00833333333	2057.87390282543	TRUE	0.333018348623853	1	-0.421479041956676	7.43898518489793	0.7
11	a dollar bill	6 dollar bills	quantObject	1	69	1	simplified	impersonal	d	No	7.53689712956617	N/A	-1	0.389041984732824	0.0424824497238362	0.778083969465649	-1	0.8	1	2742.00833333333	2057.87390282543	FALSE	-0.221916030534351	1	-0.0154617788956282	7.5523589084618	0.8
11	50 dollar bills	9 pennies	quantObject	1	83	1	simplified	impersonal	k	Yes	7.13249755166004	N/A	-1	0.192508849557522	0.0350247464085578	0.385017699115044	1	0.4	1	2742.00833333333	2057.87390282543	TRUE	0.614982300884956	1	-0.366918427996261	7.4994159796563	0.4
11	47 teddy bears	a dinosaur fossil	quantObject	1	32	1	simplified	impersonal	d	No	7.52617891334615	N/A	-1	0.718717391304348	0.0404802595265362	0.562565217391304	-1	0.6	1	2742.00833333333	2057.87390282543	FALSE	-0.437434782608696	1	-0.384934490094063	7.91111340344021	0.6
11	6 dollar bills	6 videogames	quantObject	1	21	1	simplified	impersonal	k	Yes	8.71555212590782	N/A	-1	0.460344444444444	0.0399924112737527	0.920688888888889	-1	1	0	2742.00833333333	2057.87390282543	FALSE	-0.079311111111111	0	0.574034605693031	8.14151752021479	1
11	a wallet	49 pieces of jewelry	quantObject	1	4	1	simplified	impersonal	k	Yes	8.86474666090541	N/A	-1	0.356101694915254	0.0430758939189577	0.712203389830508	-1	0.8	0	2742.00833333333	2057.87390282543	FALSE	-0.287796610169492	0	0.139915483354427	8.72483117755098	0.8
11	51 dinosaur fossils	53 passports	quantObject	1	15	1	simplified	impersonal	d	No	8.72306850116393	N/A	-1	0.649837121212121	0.042394811391934	0.700325757575758	1	0.8	0	2742.00833333333	2057.87390282543	TRUE	0.299674242424242	0	0.413538772265222	8.30952972889871	0.8
11	7 dinosaur fossils	6 ounces of gold	quantObject	1	95	1	simplified	impersonal	k	Yes	7.58018941794454	N/A	-1	0.492922764227642	0.0470509602756509	0.985845528455285	-1	1	0	2742.00833333333	2057.87390282543	FALSE	-0.0141544715447151	0	0.109618205586399	7.47057121235814	1
11	51 dinosaur fossils	53 pennies	quantObject	1	85	1	simplified	impersonal	k	Yes	7.16472037877186	N/A	-1	0.88005	0.0281893819314953	0.2399	1	0.3	1	2742.00833333333	2057.87390282543	TRUE	0.7601	1	-0.329018400345953	7.49373877911781	0.3
11	47 pencils	53 passports	quantObject	1	63	1	simplified	impersonal	d	No	7.44014668066269	N/A	-1	0.754649606299213	0.0372622389709084	0.490700787401575	-1	0.5	1	2742.00833333333	2057.87390282543	FALSE	-0.509299212598425	1	-0.144045061691113	7.5841917423538	0.5
11	9 vending machines	a videogame	quantObject	1	28	1	simplified	impersonal	k	Yes	7.61035761831284	N/A	-1	0.42234375	0.0453590342532231	0.8446875	1	0.9	1	2742.00833333333	2057.87390282543	TRUE	0.1553125	1	-0.374579981317893	7.98493759963073	0.9
11	8 kayaks	47 umbrellas	quantObject	1	101	1	simplified	impersonal	k	Yes	7.14991683613211	N/A	-1	0.660231707317073	0.0423130427816113	0.679536585365854	1	0.7	1	2742.00833333333	2057.87390282543	TRUE	0.320463414634146	1	-0.310153353193735	7.46007018932584	0.7
11	49 staplers	8 toothbrushes	quantObject	1	52	1	simplified	impersonal	d	No	8.35208267135264	N/A	-1	0.509095833333333	0.0434937881646847	0.981808333333333	-1	1	1	2742.00833333333	2057.87390282543	FALSE	-0.0181916666666671	1	0.689204849376329	7.66287782197631	1
11	9 pennies	3 water bottles	quantObject	1	65	1	simplified	impersonal	d	No	7.20340552108309	N/A	-1	0.307063559322034	0.0411368803969738	0.614127118644068	-1	0.7	1	2742.00833333333	2057.87390282543	FALSE	-0.385872881355932	1	-0.369431890473849	7.57283741155694	0.7
11	a videogame	a pencil	quantObject	1	27	1	simplified	impersonal	d	No	8.45977592054629	N/A	-1	0.36184188034188	0.044419947185212	0.723683760683761	1	0.8	0	2742.00833333333	2057.87390282543	TRUE	0.276316239316239	0	0.454726972861785	8.0050489476845	0.8
11	47 pencils	3 wedding rings	quantObject	1	115	1	simplified	impersonal	d	No	7.15226885603254	N/A	-1	0.8691640625	0.0295915780100664	0.261671875	-1	0.3	1	2742.00833333333	2057.87390282543	FALSE	-0.738328125	1	-0.290336506986292	7.44260536301883	0.3
11	53 passports	6 videogames	quantObject	1	43	1	simplified	impersonal	k	Yes	7.53849499941346	N/A	-1	0.277740157480315	0.0391336773959854	0.55548031496063	1	0.6	1	2742.00833333333	2057.87390282543	TRUE	0.44451968503937	1	-0.21524721886533	7.75374221827879	0.6
11	49 pieces of jewelry	53 passports	quantObject	1	42	1	simplified	impersonal	d	No	7.58781721999343	N/A	-1	0.433423728813559	0.044742744054763	0.866847457627119	1	0.9	0	2742.00833333333	2057.87390282543	TRUE	0.133152542372881	0	-0.177883332898046	7.76570055289147	0.9
11	9 pennies	3 wedding rings	quantObject	1	64	1	simplified	impersonal	d	No	7.90875473878325	N/A	-1	0.0946991869918699	0.0253690231926825	0.18939837398374	-1	0.2	1	2742.00833333333	2057.87390282543	FALSE	-0.81060162601626	1	0.330338528883495	7.57841620989975	0.2
11	3 teddy bears	a wallet	quantObject	1	26	1	simplified	impersonal	d	No	8.59987855803485	N/A	-1	0.625625	0.0402602743224216	0.74875	-1	0.8	1	2742.00833333333	2057.87390282543	FALSE	-0.25125	1	0.574009043582763	8.02586951445208	0.8
11	9 passports	a motorcycle	quantObject	1	103	1	simplified	impersonal	k	Yes	7.26892012819372	N/A	-1	0.492055118110236	0.0420552393276263	0.984110236220472	1	1	1	2742.00833333333	2057.87390282543	TRUE	0.015889763779528	1	-0.18810770774471	7.45702783593843	1
11	3 water bottles	7 dinosaur fossils	quantObject	1	51	1	simplified	impersonal	k	Yes	8.07464907506665	N/A	-1	0.829469827586207	0.0344422933047451	0.341060344827586	-1	0.4	0	2742.00833333333	2057.87390282543	FALSE	-0.658939655172414	0	0.403017215380308	7.67163185968634	0.4
11	3 teddy bears	9 smartphones	quantObject	1	14	1	simplified	impersonal	d	No	8.37401542173991	N/A	-1	0.741457142857143	0.0347047978588407	0.517085714285714	-1	0.6	1	2742.00833333333	2057.87390282543	FALSE	-0.482914285714286	1	0.0329277320682682	8.34108768967164	0.6
11	47 pencils	a rock	quantObject	1	16	1	simplified	impersonal	d	No	8.72729202920964	N/A	-1	0.316504132231405	0.0403299049908236	0.63300826446281	1	0.7	0	2742.00833333333	2057.87390282543	TRUE	0.36699173553719	0	0.448245290522323	8.27904673868732	0.7
11	5 rocks	53 passports	quantObject	1	39	1	simplified	impersonal	d	No	7.88419993367604	N/A	-1	0.154289256198347	0.0321843315973649	0.308578512396694	-1	0.4	1	2742.00833333333	2057.87390282543	FALSE	-0.691421487603306	1	0.0800341317793443	7.8041658018967	0.4
11	50 videogames	3 wallets	quantObject	1	88	1	simplified	impersonal	d	No	6.96129604591017	N/A	-1	0.5949	0.0445409306078617	0.8102	-1	0.9	1	2742.00833333333	2057.87390282543	FALSE	-0.1898	1	-0.524631749338596	7.48592779524876	0.9
11	3 wallets	9 smartphones	quantObject	1	45	1	simplified	impersonal	d	No	8.76701762131178	N/A	-1	0.634165384615385	0.0418824593092889	0.731669230769231	-1	0.8	1	2742.00833333333	2057.87390282543	FALSE	-0.268330769230769	1	1.03598392406731	7.73103369724447	0.8
11	6 dollar bills	a toothbrush	quantObject	1	12	1	simplified	impersonal	k	Yes	8.6376393444921	N/A	-1	0.543808270676692	0.0429482450956903	0.912383458646617	-1	1	0	2742.00833333333	2057.87390282543	FALSE	-0.087616541353383	0	0.230057851122639	8.40758149336946	1
11	50 videogames	53 smartphones	quantObject	1	10	1	simplified	impersonal	d	No	8.09132127353041	N/A	-1	0.673220183486239	0.0446620713539798	0.653559633027523	-1	0.7	1	2742.00833333333	2057.87390282543	FALSE	-0.346440366972477	1	-0.387526469953789	8.4788477434842	0.7
11	53 vending machines	49 staplers	quantObject	1	55	1	simplified	impersonal	k	Yes	7.90544164906029	N/A	-1	0.3463203125	0.0426114462562733	0.692640625	1	0.7	1	2742.00833333333	2057.87390282543	TRUE	0.307359375	1	0.267077071659099	7.63836457740119	0.7
11	9 pennies	8 kayaks	quantObject	1	106	1	simplified	impersonal	d	No	7.81156848934518	N/A	-1	0.8364	0.0330196451166619	0.3272	-1	0.4	1	2742.00833333333	2057.87390282543	FALSE	-0.6728	1	0.358726479338365	7.45284201000681	0.4
11	a rock	a dinosaur fossil	quantObject	1	94	1	simplified	impersonal	d	No	7.75362354655975	N/A	-1	0.896618181818182	0.0281160246375609	0.206763636363636	-1	0.3	1	2742.00833333333	2057.87390282543	FALSE	-0.793236363636364	1	0.281079912819106	7.47254363374064	0.3
11	a paper plate	8 kayaks	quantObject	1	96	1	simplified	impersonal	d	No	7.30451594646016	N/A	-1	0.112609243697479	0.0283565031491642	0.225218487394958	-1	0.3	1	2742.00833333333	2057.87390282543	FALSE	-0.774781512605042	1	-0.164150031839042	7.4686659782992	0.3
11	a stapler	52 motorcycles	quantObject	1	48	1	simplified	impersonal	d	No	7.9402277651457	N/A	-1	0.222758064516129	0.0371299061493436	0.445516129032258	-1	0.5	1	2742.00833333333	2057.87390282543	FALSE	-0.554483870967742	1	0.240437616598575	7.69979014854713	0.5
11	48 mailboxes	53 pennies	quantObject	1	9	1	simplified	impersonal	d	No	8.01730750768858	N/A	-1	0.641845238095238	0.0420290648180543	0.716309523809524	1	0.8	0	2742.00833333333	2057.87390282543	TRUE	0.283690476190476	0	-0.499069129208564	8.51637663689715	0.8
11	3 umbrellas	an ounce of gold	quantObject	1	73	1	simplified	impersonal	d	No	7.47477218239787	N/A	-1	0.812241525423729	0.0341487644134249	0.375516949152542	-1	0.4	1	2742.00833333333	2057.87390282543	FALSE	-0.624483050847458	1	-0.0597591315895052	7.53453131398738	0.4
11	a wedding ring	a teddy bear	quantObject	1	91	1	simplified	impersonal	k	Yes	7.63191651307125	N/A	-1	0.16641592920354	0.0341871348984944	0.33283185840708	1	0.4	1	2742.00833333333	2057.87390282543	TRUE	0.66716814159292	1	0.153028377183918	7.47888813588733	0.4
11	50 ounces of gold	47 umbrellas	quantObject	1	99	1	simplified	impersonal	k	Yes	7.35179986905778	N/A	-1	0.820808943089431	0.034149489791952	0.358382113821138	1	0.4	1	2742.00833333333	2057.87390282543	TRUE	0.641617886178862	1	-0.111531031874069	7.46333090093185	0.4
11	a pencil	8 toothbrushes	quantObject	1	116	1	simplified	impersonal	d	No	8.0643219609108	N/A	-1	0.348201754385965	0.0434644710499729	0.69640350877193	-1	0.7	1	2742.00833333333	2057.87390282543	FALSE	-0.30359649122807	1	0.622669220817877	7.44165274009293	0.7
11	53 paper plates	3 wallets	quantObject	1	40	1	simplified	impersonal	d	No	8.14235427684983	N/A	-1	0.727086956521739	0.0404660290031528	0.545826086956522	-1	0.6	1	2742.00833333333	2057.87390282543	FALSE	-0.454173913043478	1	0.351457065656843	7.79089721119299	0.6
11	a mailbox	8 kayaks	quantObject	1	53	1	simplified	impersonal	d	No	7.60140233458373	N/A	-1	0.286203539823009	0.0422454069379659	0.572407079646018	-1	0.6	1	2742.00833333333	2057.87390282543	FALSE	-0.427592920353982	1	-0.0530196417267144	7.65442197631045	0.6
11	a paper plate	7 dinosaur fossils	quantObject	1	49	1	simplified	impersonal	d	No	7.60787807327851	N/A	-1	0.0587226890756303	0.020159506430831	0.117445378151261	-1	0.2	1	2742.00833333333	2057.87390282543	FALSE	-0.882554621848739	1	-0.0821988712865105	7.69007694456502	0.2
11	a penny	8 toothbrushes	quantObject	1	8	1	simplified	impersonal	k	Yes	7.87054784450771	N/A	-1	0.207411016949153	0.0350551648617732	0.414822033898305	-1	0.5	0	2742.00833333333	2057.87390282543	FALSE	-0.585177966101695	0	-0.68468112734622	8.55522897185393	0.5
11	an ounce of gold	53 vending machines	quantObject	1	71	1	simplified	impersonal	k	Yes	7.27170370688737	N/A	-1	0.673333333333333	0.0413788424953279	0.653333333333333	1	0.7	1	2742.00833333333	2057.87390282543	TRUE	0.346666666666667	1	-0.271432602050138	7.54313630893751	0.7
11	a pencil	9 passports	quantObject	1	79	1	simplified	impersonal	d	No	7.36391350140582	N/A	-1	0.16955737704918	0.0327431689716813	0.339114754098361	-1	0.4	1	2742.00833333333	2057.87390282543	FALSE	-0.660885245901639	1	-0.148108530209379	7.5120220316152	0.4
11	3 wedding rings	3 pencils	quantObject	1	75	1	simplified	impersonal	k	Yes	7.35819375273303	N/A	-1	0.091396694214876	0.0260743120232937	0.182793388429752	1	0.2	1	2742.00833333333	2057.87390282543	TRUE	0.817206611570248	1	-0.16830881210431	7.52650256483734	0.2
11	48 pairs of shoes	47 umbrellas	quantObject	1	54	1	simplified	impersonal	k	Yes	7.82284529027977	N/A	-1	0.699463414634146	0.0390857042516765	0.601073170731707	1	0.7	1	2742.00833333333	2057.87390282543	TRUE	0.398926829268293	1	0.176591125017578	7.6462541652622	0.7
11	8 kayaks	47 pencils	quantObject	1	84	1	simplified	impersonal	k	Yes	8.08517874807454	N/A	-1	0.752056451612903	0.0373090681113524	0.495887096774194	1	0.5	1	2742.00833333333	2057.87390282543	TRUE	0.504112903225806	1	0.588650552519723	7.49652819555481	0.5
11	a wedding ring	3 pencils	quantObject	1	102	1	simplified	impersonal	k	Yes	7.30787278076371	N/A	-1	0.938435344827586	0.0222998082584302	0.123129310344828	1	0.2	1	2742.00833333333	2057.87390282543	TRUE	0.876870689655172	1	-0.150649874758511	7.45852265552222	0.2
11	a mailbox	52 motorcycles	quantObject	1	66	1	simplified	impersonal	k	Yes	7.39756153552405	N/A	-1	0.266379310344828	0.03998644892991	0.532758620689655	-1	0.6	0	2742.00833333333	2057.87390282543	FALSE	-0.467241379310345	0	-0.169887110374087	7.56744864589814	0.6
11	47 wedding rings	5 pieces of jewelry	quantObject	1	76	1	simplified	impersonal	k	Yes	7.89207842124812	N/A	-1	0.305415384615385	0.0394895224200147	0.610830769230769	1	0.7	1	2742.00833333333	2057.87390282543	TRUE	0.389169230769231	1	0.369386300943081	7.52269212030504	0.7
11	9 passports	48 mailboxes	quantObject	1	41	1	simplified	impersonal	k	Yes	7.47477218239787	N/A	-1	0.737573643410853	0.0379459956380378	0.524852713178295	1	0.6	1	2742.00833333333	2057.87390282543	TRUE	0.475147286821705	1	-0.30330841103423	7.7780805934321	0.6
11	5 staplers	a pair of shoes	quantObject	1	77	1	simplified	impersonal	d	No	7.21303165983487	N/A	-1	0.772246031746032	0.0370499652281266	0.455507936507936	-1	0.5	1	2742.00833333333	2057.87390282543	FALSE	-0.544492063492064	1	-0.305979812527958	7.51901147236283	0.5
11	9 paper plates	53 paper plates	quantObject	1	61	1	simplified	impersonal	d	No	8.19671240721307	N/A	-1	0.393803278688525	0.0423213817097236	0.787606557377049	-1	0.8	1	2742.00833333333	2057.87390282543	FALSE	-0.212393442622951	1	0.600351401958751	7.59636100525432	0.8
11	52 kayaks	a pencil	quantObject	1	117	1	simplified	impersonal	k	Yes	7.17472430983638	N/A	-1	0.170588495575221	0.0345603823041039	0.341176991150443	1	0.4	1	2742.00833333333	2057.87390282543	TRUE	0.658823008849557	1	-0.266008256879871	7.44073256671625	0.4
11	52 kayaks	50 dollar bills	quantObject	1	72	1	simplified	impersonal	d	No	8.2725706084249	N/A	-1	0.38675462962963	0.0468102746347346	0.773509259259259	1	0.8	0	2742.00833333333	2057.87390282543	TRUE	0.226490740740741	0	0.733811345434939	7.53875926298996	0.8
11	48 mailboxes	49 pieces of jewelry	quantObject	1	22	1	simplified	impersonal	d	No	8.19367666595524	N/A	-1	0.235299180327869	0.0392339803174995	0.470598360655738	-1	0.5	1	2742.00833333333	2057.87390282543	FALSE	-0.529401639344262	1	0.0769190735646834	8.11675759239056	0.5
11	a wedding ring	50 ounces of gold	quantObject	1	30	1	simplified	impersonal	d	No	8.52753948347038	N/A	-1	0.517875	0.0472531708345554	0.96425	1	1	0	2742.00833333333	2057.87390282543	TRUE	0.0357499999999999	0	0.580792734413731	7.94674674905665	1
11	a kayak	a videogame	quantObject	1	82	1	simplified	impersonal	k	Yes	7.13009851012558	N/A	-1	0.69298	0.0410565127262075	0.61404	1	0.7	1	2742.00833333333	2057.87390282543	TRUE	0.38596	1	-0.372307090193384	7.50240560031896	0.7
11	6 ounces of gold	a pencil	quantObject	1	59	1	simplified	impersonal	k	Yes	7.07580886397839	N/A	-1	0.0806024590163934	0.0236825331716678	0.161204918032787	1	0.2	1	2742.00833333333	2057.87390282543	TRUE	0.838795081967213	1	-0.533594826238301	7.60940369021669	0.2
11	47 pencils	47 teddy bears	quantObject	1	35	1	simplified	impersonal	d	No	8.82820108917151	N/A	-1	0.341256	0.0411687907684126	0.682512	-1	0.7	1	2742.00833333333	2057.87390282543	FALSE	-0.317488	1	0.966113871423175	7.86208721774834	0.7
11	a mailbox	a pair of shoes	quantObject	1	68	1	simplified	impersonal	d	No	7.35244110024358	N/A	-1	0.381491935483871	0.0388699690393439	0.762983870967742	-1	0.8	1	2742.00833333333	2057.87390282543	FALSE	-0.237016129032258	1	-0.204774440270278	7.55721554051386	0.8
12	52 kayaks	7 dinosaur fossils	quantObject	1	54	1	simplified	impersonal	d	Yes	7.16394668434255	N/A	-1	0.705815789473684	0.0413080661075636	0.588368421052632	-1	0.6	0	3011.98333333333	2084.87480221148	FALSE	-0.411631578947368	0	-0.67616003811759	7.84010672246014	0.6
12	a wallet	3 wedding rings	quantObject	1	107	1	simplified	impersonal	k	No	7.21303165983487	N/A	-1	0.289608	0.0421949137544651	0.579216	-1	0.6	1	3011.98333333333	2084.87480221148	FALSE	-0.420784	1	-0.282106072650748	7.49513773248562	0.6
12	47 umbrellas	6 videogames	quantObject	1	37	1	simplified	impersonal	k	No	7.94661756324447	N/A	-1	0.42512109375	0.0417710908692415	0.8502421875	1	0.9	0	3011.98333333333	2084.87480221148	TRUE	0.1497578125	0	-0.0972893030130226	8.0439068662575	0.9
12	a passport	6 dollar bills	quantObject	1	30	1	simplified	impersonal	d	Yes	8.15794350710504	N/A	-1	0.81062890625	0.0336290863105993	0.3787421875	1	0.4	1	3011.98333333333	2084.87480221148	TRUE	0.6212578125	1	0.00966035868697546	8.14828314841806	0.4
12	4 pairs of shoes	52 kayaks	quantObject	1	22	1	simplified	impersonal	k	No	8.55564437779049	N/A	-1	0.419851851851852	0.047777049941331	0.839703703703704	-1	0.9	1	3011.98333333333	2084.87480221148	FALSE	-0.160296296296296	1	0.270327198123052	8.28531717966744	0.9
12	6 dollar bills	3 wallets	quantObject	1	23	1	simplified	impersonal	k	No	7.93522953981691	N/A	-1	0.29709842519685	0.0382524503009603	0.594196850393701	-1	0.6	1	3011.98333333333	2084.87480221148	FALSE	-0.405803149606299	1	-0.331831195937328	8.26706073575424	0.6
12	a pencil	51 dinosaur fossils	quantObject	1	5	1	simplified	impersonal	k	No	8.04012466444838	N/A	-1	0.11158984375	0.0267846089386007	0.2231796875	-1	0.3	1	3011.98333333333	2084.87480221148	FALSE	-0.7768203125	1	-0.613161322537842	8.65328598698622	0.3
12	3 wallets	52 toothbrushes	quantObject	1	39	1	simplified	impersonal	d	Yes	8.05134093329298	N/A	-1	0.614725409836066	0.0459137969587209	0.770549180327869	1	0.8	1	3011.98333333333	2084.87480221148	TRUE	0.229450819672131	1	0.0348605998051621	8.01648033348782	0.8
12	3 wedding rings	48 pairs of shoes	quantObject	1	13	1	simplified	impersonal	k	No	8.49290049884719	N/A	-1	0.644553278688525	0.042187546076402	0.710893442622951	1	0.8	0	3011.98333333333	2084.87480221148	TRUE	0.289106557377049	0	0.0271790133699188	8.46572148547727	0.8
12	3 wallets	a stapler	quantObject	1	82	1	simplified	impersonal	d	Yes	7.48324441607385	N/A	-1	0.275177966101695	0.0404952574818159	0.55035593220339	1	0.6	1	3011.98333333333	2084.87480221148	TRUE	0.44964406779661	1	-0.133745799287806	7.61699021536166	0.6
12	3 pencils	a stapler	quantObject	1	74	1	simplified	impersonal	k	No	7.36833968631138	N/A	-1	0.6392	0.0415496220598399	0.7216	-1	0.8	1	3011.98333333333	2084.87480221148	FALSE	-0.2784	1	-0.3011122871406	7.66945197345198	0.8
12	a water bottle	6 ounces of gold	quantObject	1	60	1	simplified	impersonal	d	Yes	8.10107150311954	N/A	-1	0.182753846153846	0.0333505970185406	0.365507692307692	-1	0.4	0	3011.98333333333	2084.87480221148	FALSE	-0.634492307692308	0	0.318924922430782	7.78214658068876	0.4
12	50 ounces of gold	a mailbox	quantObject	1	9	1	simplified	impersonal	d	Yes	9.57171425857138	N/A	-1	0.142848214285714	0.0320408561091961	0.285696428571429	1	0.3	1	3011.98333333333	2084.87480221148	TRUE	0.714303571428571	1	1.0156722004852	8.55604205808618	0.3
12	3 water bottles	49 pieces of jewelry	quantObject	1	102	1	simplified	impersonal	k	No	6.99759598298193	N/A	-1	0.230964601769912	0.0405206006209919	0.461929203539823	-1	0.5	1	3011.98333333333	2084.87480221148	FALSE	-0.538070796460177	1	-0.517631754288988	7.51522773727091	0.5
12	48 pairs of shoes	53 passports	quantObject	1	101	1	simplified	impersonal	d	Yes	7.19518732017871	N/A	-1	0.499245901639344	0.0467993557503217	0.998491803278688	-1	1	0	3011.98333333333	2084.87480221148	FALSE	-0.00150819672131197	0	-0.324285819319313	7.51947313949802	1
12	a penny	49 pieces of jewelry	quantObject	1	58	1	simplified	impersonal	k	No	8.14409846333852	N/A	-1	0.0955296610169492	0.0256965418321777	0.191059322033898	-1	0.2	1	3011.98333333333	2084.87480221148	FALSE	-0.808940677966102	1	0.343340746768172	7.80075771657035	0.2
12	a passport	an ounce of gold	quantObject	1	63	1	simplified	impersonal	d	Yes	7.4489161025442	N/A	-1	0.465705128205128	0.043289350811412	0.931410256410256	-1	1	0	3011.98333333333	2084.87480221148	FALSE	-0.068589743589744	0	-0.306571248215191	7.75548735075939	1
12	6 videogames	47 teddy bears	quantObject	1	104	1	simplified	impersonal	d	Yes	7.28276117960559	N/A	-1	0.383416	0.0422158396946113	0.766832	-1	0.8	0	3011.98333333333	2084.87480221148	FALSE	-0.233168	0	-0.224207339913861	7.50696851951945	0.8
12	47 wedding rings	47 teddy bears	quantObject	1	66	1	simplified	impersonal	d	Yes	7.87663846097546	N/A	-1	0.188782258064516	0.0336621270416107	0.377564516129032	1	0.4	1	3011.98333333333	2084.87480221148	TRUE	0.622435483870968	1	0.146373761709768	7.7302646992657	0.4
12	a vending machine	8 kayaks	quantObject	1	98	1	simplified	impersonal	k	No	7.66481578528574	N/A	-1	0.350884920634921	0.0418780432877739	0.701769841269841	-1	0.8	1	3011.98333333333	2084.87480221148	FALSE	-0.298230158730159	1	0.132125814112768	7.53268997117297	0.8
12	9 passports	a vending machine	quantObject	1	61	1	simplified	impersonal	d	Yes	8.5039052970893	N/A	-1	0.316961538461538	0.0403571335063836	0.633923076923077	1	0.7	1	3011.98333333333	2084.87480221148	TRUE	0.366076923076923	1	0.730809703500436	7.77309559358887	0.7
12	a piece of jewelry	7 dinosaur fossils	quantObject	1	90	1	simplified	impersonal	d	Yes	7.35244110024358	N/A	-1	0.304449579831933	0.0426894781267307	0.608899159663866	-1	0.7	0	3011.98333333333	2084.87480221148	FALSE	-0.391100840336134	0	-0.219291547312963	7.57173264755655	0.7
12	51 dinosaur fossils	5 staplers	quantObject	1	105	1	simplified	impersonal	d	Yes	7.39264752072162	N/A	-1	0.109048	0.0287402104323489	0.218096	1	0.3	1	3011.98333333333	2084.87480221148	TRUE	0.781904	1	-0.110304367368171	7.50295188808979	0.3
12	a dinosaur fossil	48 pairs of shoes	quantObject	1	8	1	simplified	impersonal	k	No	8.44784311328144	N/A	-1	0.586372807017544	0.0465013974644473	0.827254385964912	1	0.9	0	3011.98333333333	2084.87480221148	TRUE	0.172745614035088	0	-0.131840799257061	8.5796839125385	0.9
12	49 staplers	7 dinosaur fossils	quantObject	1	24	1	simplified	impersonal	k	No	8.47616284185825	N/A	-1	0.870717741935484	0.0298585888959333	0.258564516129032	-1	0.3	1	3011.98333333333	2084.87480221148	FALSE	-0.741435483870968	1	0.227024550164382	8.24913829169386	0.3
12	a dinosaur fossil	53 smartphones	quantObject	1	111	1	simplified	impersonal	k	No	7.7007477945118	N/A	-1	0.548802884615385	0.0483055028040281	0.902394230769231	1	1	0	3011.98333333333	2084.87480221148	TRUE	0.097605769230769	0	0.220398735420103	7.4803490590917	1
12	5 staplers	53 paper plates	quantObject	1	11	1	simplified	impersonal	d	Yes	8.21311069759668	N/A	-1	0.431017391304348	0.0454465978611303	0.862034782608696	-1	0.9	0	3011.98333333333	2084.87480221148	FALSE	-0.137965217391304	0	-0.296937314807948	8.51004801240462	0.9
12	47 pencils	48 mailboxes	quantObject	1	20	1	simplified	impersonal	k	No	8.09101504171053	N/A	-1	0.59542748091603	0.0430586567108037	0.809145038167939	-1	0.9	1	3011.98333333333	2084.87480221148	FALSE	-0.190854961832061	1	-0.231842038813374	8.3228570805239	0.9
12	9 smartphones	6 videogames	quantObject	1	40	1	simplified	impersonal	d	Yes	7.81278281857758	N/A	-1	0.772239130434783	0.0363244230321026	0.455521739130435	1	0.5	1	3011.98333333333	2084.87480221148	TRUE	0.544478260869565	1	-0.190359414760273	8.00314223333785	0.5
12	a kayak	53 paper plates	quantObject	1	21	1	simplified	impersonal	d	Yes	8.29104513108173	N/A	-1	0.740162698412698	0.0379662781046308	0.519674603174603	1	0.6	1	3011.98333333333	2084.87480221148	TRUE	0.480325396825397	1	-0.0128687167205435	8.30391384780227	0.6
12	a paper plate	a wedding ring	quantObject	1	46	1	simplified	impersonal	k	No	7.78821155784708	N/A	-1	0.0415769230769231	0.017613135514544	0.0831538461538461	-1	0.1	1	3011.98333333333	2084.87480221148	FALSE	-0.916846153846154	1	-0.139873055161755	7.92808461300883	0.1
12	a stapler	47 water bottles	quantObject	1	97	1	simplified	impersonal	d	Yes	7.45356187164337	N/A	-1	0.324227272727273	0.0421148185130093	0.648454545454546	-1	0.7	0	3011.98333333333	2084.87480221148	FALSE	-0.351545454545454	0	-0.0836989252052955	7.53726079684867	0.7
12	50 ounces of gold	a toothbrush	quantObject	1	88	1	simplified	impersonal	d	Yes	7.5109777520141	N/A	-1	0.154376033057851	0.0332933333044045	0.308752066115702	1	0.4	1	3011.98333333333	2084.87480221148	TRUE	0.691247933884298	1	-0.0714504737666912	7.58242822578079	0.4
12	47 umbrellas	50 ounces of gold	quantObject	1	76	1	simplified	impersonal	k	No	8.20740183337636	N/A	-1	0.820808943089431	0.034149489791952	0.358382113821138	-1	0.4	1	3011.98333333333	2084.87480221148	FALSE	-0.641617886178862	1	0.551800492876947	7.65560134049941	0.4
12	an ounce of gold	a smartphone	quantObject	1	116	1	simplified	impersonal	k	No	7.43070708254597	N/A	-1	0.449144628099174	0.0447117804429153	0.898289256198347	1	0.9	0	3011.98333333333	2084.87480221148	TRUE	0.101710743801653	0	-0.0326278579101285	7.4633349404561	0.9
12	48 mailboxes	50 ounces of gold	quantObject	1	118	1	simplified	impersonal	k	No	7.82324569068552	N/A	-1	0.14464	0.031467643899927	0.28928	-1	0.3	1	3011.98333333333	2084.87480221148	FALSE	-0.71072	1	0.366288589410803	7.45695710127472	0.3
12	50 ounces of gold	52 kayaks	quantObject	1	43	1	simplified	impersonal	k	No	7.88269220628903	N/A	-1	0.272890350877193	0.0398562399647018	0.545780701754386	1	0.6	0	3011.98333333333	2084.87480221148	TRUE	0.454219298245614	0	-0.0818820664541455	7.96457427274317	0.6
12	a rock	3 umbrellas	quantObject	1	1	1	simplified	impersonal	d	Yes	9.45782525467655	N/A	-1	0.261171052631579	0.0414079976203489	0.522342105263158	-1	0.6	0	3011.98333333333	2084.87480221148	FALSE	-0.477657894736842	0	0.699841285439218	8.75798396923733	0.6
12	51 dinosaur fossils	an umbrella	quantObject	1	79	1	simplified	impersonal	d	Yes	7.92117272158701	N/A	-1	0.149376923076923	0.0304070652843217	0.298753846153846	1	0.3	1	3011.98333333333	2084.87480221148	TRUE	0.701246153846154	1	0.285411503200476	7.63576121838654	0.3
12	5 pieces of jewelry	52 toothbrushes	quantObject	1	96	1	simplified	impersonal	d	Yes	7.09589322109753	N/A	-1	0.668083333333333	0.040279099610858	0.663833333333333	1	0.7	1	3011.98333333333	2084.87480221148	TRUE	0.336166666666667	1	-0.446023582616293	7.54191680371382	0.7
12	a rock	5 rocks	quantObject	1	81	1	simplified	impersonal	k	No	7.99631723179675	N/A	-1	0.43775	0.0456148605936846	0.8755	-1	0.9	1	3011.98333333333	2084.87480221148	FALSE	-0.1245	1	0.373185184647847	7.6231320471489	0.9
12	8 toothbrushes	4 mailboxes	quantObject	1	89	1	simplified	impersonal	d	Yes	7.29709100516042	N/A	-1	0.466104166666667	0.0455846407234559	0.932208333333333	1	1	1	3011.98333333333	2084.87480221148	TRUE	0.067791666666667	1	-0.279940061257351	7.57703106641777	1
12	a videogame	47 teddy bears	quantObject	1	44	1	simplified	impersonal	d	Yes	8.40603814205008	N/A	-1	0.365836134453781	0.042567167765233	0.731672268907563	-1	0.8	0	3011.98333333333	2084.87480221148	FALSE	-0.268327731092437	0	0.453852353160717	7.95218578888936	0.8
12	a wallet	53 pennies	quantObject	1	69	1	simplified	impersonal	d	Yes	8.09955428237636	N/A	-1	0.758864754098361	0.0373966579039445	0.482270491803279	1	0.5	1	3011.98333333333	2084.87480221148	TRUE	0.517729508196721	1	0.393153068667375	7.70640121370899	0.5
12	3 teddy bears	a kayak	quantObject	1	93	1	simplified	impersonal	k	No	8.02191277898571	N/A	-1	0.632109022556391	0.0405648589415156	0.735781954887218	-1	0.8	1	3011.98333333333	2084.87480221148	FALSE	-0.264218045112782	1	0.465500844840838	7.55641193414487	0.8
12	53 paper plates	3 umbrellas	quantObject	1	53	1	simplified	impersonal	d	Yes	8.05547514175727	N/A	-1	0.565269230769231	0.0435843983410873	0.869461538461539	-1	0.9	0	3011.98333333333	2084.87480221148	FALSE	-0.130538461538461	0	0.20506862332354	7.85040651843373	0.9
12	9 pennies	50 ounces of gold	quantObject	1	100	1	simplified	impersonal	k	No	7.7336835707759	N/A	-1	0.0888109243697479	0.0253423036964213	0.177621848739496	-1	0.2	1	3011.98333333333	2084.87480221148	FALSE	-0.822378151260504	1	0.209885912401599	7.5237976583743	0.2
12	8 toothbrushes	a water bottle	quantObject	1	12	1	simplified	impersonal	d	Yes	8.05737748855799	N/A	-1	0.541669421487603	0.0428679057313227	0.916661157024793	-1	1	0	3011.98333333333	2084.87480221148	FALSE	-0.083338842975207	0	-0.43030265136511	8.4876801399231	1
12	49 pieces of jewelry	3 wedding rings	quantObject	1	113	1	simplified	impersonal	d	Yes	7.68845535654994	N/A	-1	0.549243697478992	0.0456104847222551	0.901512605042017	-1	1	0	3011.98333333333	2084.87480221148	FALSE	-0.098487394957983	0	0.215100985222754	7.47335437132719	1
12	a dollar bill	3 teddy bears	quantObject	1	91	1	simplified	impersonal	k	No	7.67971363996637	N/A	-1	0.320702380952381	0.0404394796099445	0.641404761904762	-1	0.7	1	3011.98333333333	2084.87480221148	FALSE	-0.358595238095238	1	0.113182477217063	7.56653116274931	0.7
12	47 wedding rings	47 umbrellas	quantObject	1	95	1	simplified	impersonal	d	Yes	7.30451594646016	N/A	-1	0.832767716535433	0.0314110876645144	0.334464566929134	1	0.4	1	3011.98333333333	2084.87480221148	TRUE	0.665535433070866	1	-0.24214363273155	7.54665957919171	0.4
12	a rock	3 teddy bears	quantObject	1	19	1	simplified	impersonal	k	No	7.68616230349291	N/A	-1	0.261733606557377	0.0380751913350665	0.523467213114754	-1	0.6	1	3011.98333333333	2084.87480221148	FALSE	-0.476532786885246	1	-0.65599103286264	8.34215333635555	0.6
