sn	ItemX	ItemY	cond	sess	trial	trial_type	title	typeOfScen	x_is_are	x_verb	y_is_are	y_verb	actor	keybResp	keyDef	keybRT	rtBeep	rtDeadline	averageP	sdp	overlap	direct.xVy	overlapRound	correct	avgRT	sdRT	targetPresent	dirOverlap	correct01	res.RT	fit.RT	overlapRoundSN
10	an orphan	an addict	Terrorist1	1	4	1	Missile	personal	is	kill	is	kill	personally	d	Yes	8.50431056558522	N/A	-1	0.183042735042735	0.03661901980676	0.36608547008547	1	0.4	1	4759.15	2941.52318426861	TRUE	0.63391452991453	1	-0.221403892009951	8.72571445759517	0.4
10	an assassin	an orphan	Terrorist1	1	15	1	Missile	personal	is	kill	is	kill	personally	k	No	7.43897159239586	N/A	-1	0.0721612903225806	0.0220956009854589	0.144322580645161	-1	0.2	1	4759.15	2941.52318426861	FALSE	-0.855677419354839	1	-0.804458231685385	8.24342982408125	0.2
10	a mentor	a celebrity	Terrorist1	1	10	1	Safari	personal	is	kill	is	kill	personally	d	Yes	8.16194579946869	N/A	-1	0.371208695652174	0.0462679710878815	0.742417391304348	1	0.8	1	4759.15	2941.52318426861	TRUE	0.257582608695652	1	-0.172724547230775	8.33467034669946	0.8
10	a convict	a mentor	Terrorist1	1	8	1	Malfunctioning Crane	personal	is	kill	is	kill	personally	k	No	8.32869258354557	N/A	-1	0.173435114503817	0.0321503104929718	0.346870229007634	-1	0.4	1	4759.15	2941.52318426861	FALSE	-0.653129770992366	1	-0.0832997232511392	8.41199230679671	0.4
10	a convict	a soldier	Terrorist1	1	14	1	Space ship	personal	is	kill	is	kill	personally	k	No	7.76895604453833	N/A	-1	0.140184615384615	0.0297073882973916	0.280369230769231	-1	0.3	1	4759.15	2941.52318426861	FALSE	-0.719630769230769	1	-0.485480012957523	8.25443605749586	0.3
10	a police officer	a gang member	Terrorist1	1	1	1	Space Cargo	personal	is	kill	is	kill	personally	d	Yes	8.57866451350434	N/A	-1	0.15042578125	0.0310331917629791	0.3008515625	1	0.4	1	4759.15	2941.52318426861	TRUE	0.6991484375	1	-0.660590835041001	9.23925534854534	0.4
10	a billionaire	a life-saving antidote	Terrorist1	1	2	1	Space ship	personal	is	kill	is	destroy	personally	k	No	9.42359519054002	N/A	-1	0.317521739130435	0.0415075642183342	0.63504347826087	-1	0.7	1	4759.15	2941.52318426861	FALSE	-0.36495652173913	1	0.395546009643413	9.02804918089661	0.7
10	a rabid possum	a homeless adult	Terrorist1	1	30	1	Lumberjack	personal	is	kill	is	kill	personally	k	No	8.09681747057232	N/A	-1	0.946662878787879	0.017746682826375	0.106674242424242	-1	0.2	1	4759.15	2941.52318426861	FALSE	-0.893325757575758	1	-0.104903781337038	8.20172125190936	0.2
10	a police officer	a congressman	Terrorist1	1	33	1	Malfunctioning Crane	personal	is	kill	is	kill	personally	d	Yes	8.94637482614172	N/A	-1	0.337379166666667	0.0433951137377583	0.674758333333333	1	0.7	1	4759.15	2941.52318426861	TRUE	0.325241666666667	1	0.745358830067664	8.20101599607405	0.7
10	a convict	a pedophile	Terrorist1	1	36	1	Space ship	personal	is	kill	is	kill	personally	d	Yes	8.5137873982814	N/A	-1	0.767575187969925	0.0323881720842725	0.46484962406015	1	0.5	1	4759.15	2941.52318426861	TRUE	0.53515037593985	1	0.313128061957583	8.20065933632382	0.5
10	an astronaut	a celebrity	Terrorist1	1	35	1	Marine	personal	is	kill	is	kill	personally	d	Yes	7.68109900153636	N/A	-1	0.409064102564103	0.0433030278126693	0.818128205128205	1	0.9	1	4759.15	2941.52318426861	TRUE	0.181871794871795	1	-0.519653443561672	8.20075244509803	0.9
10	a celebrity	a cockroach	Terrorist1	1	9	1	Space ship	personal	is	kill	is	kill	personally	d	Yes	8.155649270366	N/A	-1	0.907536363636364	0.025968701630491	0.184927272727273	1	0.2	1	4759.15	2941.52318426861	TRUE	0.815072727272727	1	-0.213307829746704	8.36895710011271	0.2
10	an astronaut	a congressman	Terrorist1	1	25	1	Lumberjack	personal	is	kill	is	kill	personally	k	No	8.82025636590632	N/A	-1	0.36735652173913	0.0439582539881778	0.734713043478261	1	0.8	0	4759.15	2941.52318426861	TRUE	0.265286956521739	0	0.61551707512811	8.20473929077821	0.8
10	a judge	a congressman	Terrorist1	1	18	1	Marine	personal	is	kill	is	kill	personally	k	No	8.85694575615902	N/A	-1	0.399058558558559	0.0456927788437419	0.798117117117117	1	0.8	0	4759.15	2941.52318426861	TRUE	0.201882882882883	0	0.634837032894806	8.22210872326422	0.8
10	a college student	a homeless adult	Terrorist1	1	22	1	Space Cargo	personal	is	kill	is	kill	personally	d	Yes	8.40827078419205	N/A	-1	0.608928571428571	0.0422041323232339	0.782142857142857	1	0.8	1	4759.15	2941.52318426861	TRUE	0.217857142857143	1	0.199187122268782	8.20908366192327	0.8
10	a celebrity	a rabid possum	Terrorist1	1	12	1	Riverbank	personal	is	kill	is	kill	personally	d	Yes	7.81318726752142	N/A	-1	0.895029914529915	0.0283846099629995	0.209940170940171	1	0.3	1	4759.15	2941.52318426861	TRUE	0.790059829059829	1	-0.472402712721433	8.28558998024285	0.3
10	an assassin	an astronaut	Terrorist1	1	20	1	Safari	personal	is	kill	is	kill	personally	k	No	7.755767170103	N/A	-1	0.1018046875	0.0257081911887956	0.203609375	-1	0.3	1	4759.15	2941.52318426861	FALSE	-0.796390625	1	-0.45837395240001	8.21414112250301	0.3
10	a gang member	a rapist	Terrorist1	1	31	1	Riverbank	personal	is	kill	is	kill	personally	k	No	8.70963008195129	N/A	-1	0.717281746031746	0.0359890721325269	0.565436507936508	1	0.6	0	4759.15	2941.52318426861	TRUE	0.434563492063492	0	0.508198883638071	8.20143119831321	0.6
10	a smartphone	an adult	Terrorist1	1	34	1	Malfunctioning Crane	personal	is	destroy	is	kill	personally	k	No	7.46851327149634	N/A	-1	0.823575	0.0358107736404975	0.35285	-1	0.4	1	4759.15	2941.52318426861	FALSE	-0.64715	1	-0.732356039590544	8.20086931108688	0.4
10	an adult	a rapist	Terrorist1	1	23	1	Marine	personal	is	kill	is	kill	personally	d	Yes	8.11939858961229	N/A	-1	0.051612	0.0188373113872522	0.103224	1	0.2	1	4759.15	2941.52318426861	TRUE	0.896776	1	-0.0878983441330217	8.20729693374532	0.2
10	a thief	an assassin	Terrorist1	1	13	1	Lumberjack	personal	is	kill	is	kill	personally	d	Yes	8.60373779281642	N/A	-1	0.554604838709677	0.0421515667224577	0.890790322580645	1	0.9	1	4759.15	2941.52318426861	TRUE	0.109209677419355	1	0.335487201057106	8.26825059175932	0.9
10	a terrorist	an assassin	Terrorist1	1	29	1	Riverbank	personal	is	kill	is	kill	personally	k	No	8.69148257651293	N/A	-1	0.406971774193548	0.0399824930957364	0.813943548387097	-1	0.9	1	4759.15	2941.52318426861	FALSE	-0.186056451612903	1	0.4893972622408	8.20208531427213	0.9
10	an astronaut	a billionaire	Terrorist1	1	26	1	Missile	personal	is	kill	is	kill	personally	d	Yes	7.51479976048867	N/A	-1	0.479008620689655	0.0431442240943708	0.95801724137931	1	1	1	4759.15	2941.52318426861	TRUE	0.04198275862069	1	-0.689035951766996	8.20383571225567	1
10	an addict	a rapist	Terrorist1	1	21	1	Marine	personal	is	kill	is	kill	personally	d	Yes	8.32093496888341	N/A	-1	0.171774193548387	0.0322414105028782	0.343548387096774	1	0.4	1	4759.15	2941.52318426861	TRUE	0.656451612903226	1	0.109608685283497	8.21132628359991	0.4
10	a mentor	a college student	Terrorist1	1	27	1	Tsunami	personal	is	kill	is	kill	personally	k	No	8.71505995954565	N/A	-1	0.5053375	0.0447674307448438	0.989325	-1	1	1	4759.15	2941.52318426861	FALSE	-0.010675	1	0.51194414098585	8.2031158185598	1
10	a mentor	an adult with a deadly contagious disease	Terrorist1	1	40	1	Malfunctioning Crane	personal	is	kill	is	kill	personally	d	Yes	8.10288913464087	N/A	-1	0.746314393939394	0.0351020393607799	0.507371212121212	1	0.6	1	4759.15	2941.52318426861	TRUE	0.492628787878788	1	-0.0975523182272884	8.20044145286816	0.6
10	a nun	a life-saving antidote	Terrorist1	1	16	1	Nuclear Plant	personal	is	kill	is	destroy	personally	k	No	8.54985397365579	N/A	-1	0.269464	0.039491876535717	0.538928	-1	0.6	1	4759.15	2941.52318426861	FALSE	-0.461072	1	0.31519297027212	8.23466100338367	0.6
10	an orphan	an adult with a deadly contagious disease	Terrorist1	1	17	1	Nuclear Plant	personal	is	kill	is	kill	personally	d	Yes	8.56636423542269	N/A	-1	0.209081395348837	0.0351604102289025	0.418162790697674	1	0.5	1	4759.15	2941.52318426861	TRUE	0.581837209302326	1	0.338689474609913	8.22767476081277	0.5
10	an astronaut	a rabid possum	Terrorist1	1	28	1	Space Cargo	personal	is	kill	is	kill	personally	d	Yes	7.7336835707759	N/A	-1	0.97508984375	0.0128536987079887	0.0498203125000001	1	0.1	1	4759.15	2941.52318426861	TRUE	0.9501796875	1	-0.468858698368535	8.20254226914444	0.1
10	an adult with a deadly contagious disease	a judge	Terrorist1	1	37	1	Tsunami	personal	is	kill	is	kill	personally	k	No	8.10440130792161	N/A	-1	0.686980769230769	0.0401394924777477	0.626038461538462	-1	0.7	1	4759.15	2941.52318426861	FALSE	-0.373961538461538	1	-0.096183847334478	8.20058515525609	0.7
10	an orphan	a rapist	Terrorist1	1	11	1	Nuclear Plant	personal	is	kill	is	kill	personally	d	Yes	7.71646080017636	N/A	-1	0.0397698412698413	0.016757758132585	0.0795396825396826	1	0.1	1	4759.15	2941.52318426861	TRUE	0.920460317460317	1	-0.590892808665835	8.30735360884219	0.1
10	a rapist	a smartphone	Terrorist1	1	3	1	Lumberjack	personal	is	kill	is	destroy	personally	k	No	9.7655464514229	N/A	-1	0.171795275590551	0.032979738451044	0.343590551181102	-1	0.4	1	4759.15	2941.52318426861	FALSE	-0.656409448818898	1	0.905768189792497	8.85977826163041	0.4
10	a rabid possum	a judge	Terrorist1	1	7	1	Riverbank	personal	is	kill	is	kill	personally	k	No	8.78828846026362	N/A	-1	0.966270161290323	0.0148841129102173	0.0674596774193548	-1	0.1	1	4759.15	2941.52318426861	FALSE	-0.932540322580645	1	0.322280277655834	8.46600818260779	0.1
10	a rabid possum	a cockroach	Terrorist1	1	24	1	Tsunami	personal	is	kill	is	kill	personally	k	No	8.48899945704546	N/A	-1	0.439381147540984	0.0419709341322325	0.878762295081967	1	0.9	0	4759.15	2941.52318426861	TRUE	0.121237704918033	0	0.28312603472658	8.20587342231888	0.9
10	an adult with a deadly contagious disease	a homeless adult	Terrorist1	1	6	1	Safari	personal	is	kill	is	kill	personally	k	No	8.82025636590632	N/A	-1	0.674557971014493	0.0389791856937781	0.650884057971014	-1	0.7	1	4759.15	2941.52318426861	FALSE	-0.349115942028986	1	0.28644986037977	8.53380650552655	0.7
10	a homeless adult	a mentor	Terrorist1	1	39	1	Space Cargo	personal	is	kill	is	kill	personally	k	No	8.13241267450091	N/A	-1	0.396565384615385	0.0397317680389132	0.793130769230769	-1	0.8	1	4759.15	2941.52318426861	FALSE	-0.206869230769231	1	-0.0680662929821825	8.20047896748309	0.8
10	an orphan	a billionaire	Terrorist1	1	5	1	Missile	personal	is	kill	is	kill	personally	d	Yes	8.33663008763715	N/A	-1	0.380700892857143	0.0445485273162883	0.761401785714286	1	0.8	1	4759.15	2941.52318426861	TRUE	0.238598214285714	1	-0.282273854922066	8.61890394255921	0.8
100	a rabid possum	a terrorist	Terrorist1	1	26	1	Missile	personal	is	kill	is	kill	personally	k	No	8.55159461813357	N/A	-1	0.422790322580645	0.0410965977367719	0.84558064516129	1	0.9	0	3505.575	2442.26487871822	TRUE	0.15441935483871	0	0.500553378996559	8.05104123913701	0.9
100	a thief	a college student	Terrorist1	1	30	1	Marine	personal	is	kill	is	kill	personally	k	No	8.03333401588006	N/A	-1	0.890021186440678	0.0269477602042852	0.219957627118644	-1	0.3	1	3505.575	2442.26487871822	FALSE	-0.780042372881356	1	-0.0177072232569504	8.05104123913701	0.3
100	a rapist	a college student	Terrorist1	1	15	1	Safari	personal	is	kill	is	kill	personally	k	No	7.83715965000168	N/A	-1	0.955165322580645	0.0184868627503233	0.0896693548387097	-1	0.1	1	3505.575	2442.26487871822	FALSE	-0.91033064516129	1	-0.213881589134743	8.05104123913642	0.1
100	a cockroach	a billionaire	Terrorist1	1	37	1	Riverbank	personal	is	kill	is	kill	personally	k	No	7.82644313545601	N/A	-1	0.934636363636364	0.022333748386201	0.130727272727273	-1	0.2	1	3505.575	2442.26487871822	FALSE	-0.869272727272727	1	-0.224598103680998	8.05104123913701	0.2
100	a convict	a police officer	Terrorist1	1	10	1	Tsunami	personal	is	kill	is	kill	personally	k	No	7.90728360942635	N/A	-1	0.188289855072464	0.0327554480996332	0.376579710144928	-1	0.4	1	3505.575	2442.26487871822	FALSE	-0.623420289855072	1	-0.143757618840303	8.05104122826665	0.4
100	a police officer	a smartphone	Terrorist1	1	39	1	Riverbank	personal	is	kill	is	destroy	personally	d	Yes	8.4471998195957	N/A	-1	0.814453846153846	0.0344916287455175	0.371092307692308	1	0.4	1	3505.575	2442.26487871822	TRUE	0.628907692307692	1	0.396158580458691	8.05104123913701	0.4
100	a smartphone	a billionaire	Terrorist1	1	24	1	Missile	personal	is	destroy	is	kill	personally	k	No	7.84893372636407	N/A	-1	0.751703539823009	0.0405160004946282	0.496592920353982	-1	0.5	1	3505.575	2442.26487871822	FALSE	-0.503407079646018	1	-0.202107512772941	8.05104123913701	0.5
100	an adult	an elderly person	Terrorist1	1	11	1	Missile	personal	is	kill	is	kill	personally	d	Yes	8.31115254800169	N/A	-1	0.429715517241379	0.0428694686655005	0.859431034482759	-1	0.9	0	3505.575	2442.26487871822	FALSE	-0.140568965517241	0	0.260111310391126	8.05104123761056	0.9
100	a congressman	an adult	Terrorist1	1	25	1	Nuclear Plant	personal	is	kill	is	kill	personally	k	No	7.70391020961631	N/A	-1	0.346709090909091	0.045252948157222	0.693418181818182	-1	0.7	1	3505.575	2442.26487871822	FALSE	-0.306581818181818	1	-0.347131029520701	8.05104123913701	0.7
100	an adult with a deadly contagious disease	a billionaire	Terrorist1	1	18	1	Lumberjack	personal	is	kill	is	kill	personally	k	No	7.99395754757357	N/A	-1	0.679909836065574	0.0410855482355913	0.640180327868852	-1	0.7	1	3505.575	2442.26487871822	FALSE	-0.359819672131148	1	-0.0570836915634452	8.05104123913701	0.7
100	a smartphone	a homeless adult	Terrorist1	1	1	1	Space ship	personal	is	destroy	is	kill	personally	k	No	7.54644627374602	N/A	-1	0.769472868217054	0.0374794230601193	0.461054263565891	-1	0.5	1	3505.575	2442.26487871822	FALSE	-0.538945736434109	1	0.00744410350808522	7.53900217023794	0.5
100	a homeless adult	an astronaut	Terrorist1	1	29	1	Marine	personal	is	kill	is	kill	personally	k	No	7.71556953452021	N/A	-1	0.445587121212121	0.0403663030652654	0.891174242424242	-1	0.9	1	3505.575	2442.26487871822	FALSE	-0.108825757575758	1	-0.335471704616804	8.05104123913701	0.9
100	a smartphone	a thief	Terrorist1	1	36	1	Lumberjack	personal	is	destroy	is	kill	personally	k	No	7.78655180642871	N/A	-1	0.344004132231405	0.0419167771033713	0.68800826446281	1	0.7	0	3505.575	2442.26487871822	TRUE	0.31199173553719	0	-0.2644894327083	8.05104123913701	0.7
100	an addict	a police officer	Terrorist1	1	16	1	Nuclear Plant	personal	is	kill	is	kill	personally	k	No	7.85360481309784	N/A	-1	0.755444444444444	0.0373379061935243	0.489111111111111	-1	0.5	1	3505.575	2442.26487871822	FALSE	-0.510888888888889	1	-0.197436426039092	8.05104123913693	0.5
100	a rapist	a mentor	Terrorist1	1	28	1	Nuclear Plant	personal	is	kill	is	kill	personally	k	No	8.26975694753298	N/A	-1	0.955375968992248	0.0173995969362512	0.0892480620155038	-1	0.1	1	3505.575	2442.26487871822	FALSE	-0.910751937984496	1	0.218715708395971	8.05104123913701	0.1
100	a rapist	a soldier	Terrorist1	1	6	1	Tsunami	personal	is	kill	is	kill	personally	k	No	9.00871366412422	N/A	-1	0.0383937007874016	0.0166626194104079	0.0767874015748031	-1	0.1	1	3505.575	2442.26487871822	FALSE	-0.923212598425197	1	0.957700382110181	8.05101328201404	0.1
100	a gang member	a mentor	Terrorist1	1	20	1	Malfunctioning Crane	personal	is	kill	is	kill	personally	k	No	7.56268124672188	N/A	-1	0.13197131147541	0.0293087925400361	0.26394262295082	-1	0.3	1	3505.575	2442.26487871822	FALSE	-0.73605737704918	1	-0.488359992415128	8.05104123913701	0.3
100	an orphan	a soldier	Terrorist1	1	4	1	Missile	personal	is	kill	is	kill	personally	d	Yes	9.46459491831544	N/A	-1	0.537395833333333	0.0452566656672262	0.925208333333333	-1	1	0	3505.575	2442.26487871822	FALSE	-0.074791666666667	0	1.41497148490354	8.0496234334119	1
100	a soldier	an elderly person	Terrorist1	1	19	1	Malfunctioning Crane	personal	is	kill	is	kill	personally	d	Yes	8.16166045205628	N/A	-1	0.541203389830509	0.0422258319464129	0.917593220338983	1	1	1	3505.575	2442.26487871822	TRUE	0.0824067796610169	1	0.11061921291927	8.05104123913701	1
100	a convict	a police officer	Terrorist1	1	14	1	Space ship	personal	is	kill	is	kill	personally	k	No	7.81318726752142	N/A	-1	0.188289855072464	0.0327554480996332	0.376579710144928	-1	0.4	1	3505.575	2442.26487871822	FALSE	-0.623420289855072	1	-0.23785397161137	8.05104123913279	0.4
100	a pedophile	a police officer	Terrorist1	1	33	1	Space Cargo	personal	is	kill	is	kill	personally	k	No	7.23273313617761	N/A	-1	0.0471616541353383	0.0175672193791626	0.0943233082706767	-1	0.1	1	3505.575	2442.26487871822	FALSE	-0.905676691729323	1	-0.818308102959397	8.05104123913701	0.1
100	a rabid possum	a smartphone	Terrorist1	1	27	1	Safari	personal	is	kill	is	destroy	personally	k	No	8.12888014212564	N/A	-1	0.177212	0.0332371443382816	0.354424	-1	0.4	1	3505.575	2442.26487871822	FALSE	-0.645576	1	0.0778389029886259	8.05104123913701	0.4
100	a terrorist	a nun	Terrorist1	1	34	1	Space Cargo	personal	is	kill	is	kill	personally	k	No	7.87511928104029	N/A	-1	0.934438524590164	0.0215616891177854	0.131122950819672	-1	0.2	1	3505.575	2442.26487871822	FALSE	-0.868877049180328	1	-0.175921958096719	8.05104123913701	0.2
100	a soldier	a rabid possum	Terrorist1	1	23	1	Marine	personal	is	kill	is	kill	personally	k	No	7.53262361878879	N/A	-1	0.983396	0.0108454971674335	0.0332080000000001	1	0.1	0	3505.575	2442.26487871822	TRUE	0.966792	0	-0.518417620348224	8.05104123913701	0.1
100	a smartphone	a cockroach	Terrorist1	1	32	1	Riverbank	personal	is	destroy	is	kill	personally	d	Yes	7.89506349809157	N/A	-1	0.143127118644068	0.0314101871618447	0.286254237288136	1	0.3	1	3505.575	2442.26487871822	TRUE	0.713745762711864	1	-0.155977741045439	8.05104123913701	0.3
100	a nun	a billionaire	Terrorist1	1	35	1	Safari	personal	is	kill	is	kill	personally	d	Yes	7.7510451179718	N/A	-1	0.527078260869565	0.0467951849622314	0.94584347826087	-1	1	0	3505.575	2442.26487871822	FALSE	-0.05415652173913	0	-0.29999612116521	8.05104123913701	1
100	an elderly person	an orphan	Terrorist1	1	38	1	Nuclear Plant	personal	is	kill	is	kill	personally	k	No	7.77401507725073	N/A	-1	0.493448717948718	0.0449143815757816	0.986897435897436	-1	1	1	3505.575	2442.26487871822	FALSE	-0.0131025641025641	1	-0.277026161886285	8.05104123913701	1
100	a smartphone	a cockroach	Terrorist1	1	21	1	Space ship	personal	is	destroy	is	kill	personally	d	Yes	8.3020178097512	N/A	-1	0.143127118644068	0.0314101871618447	0.286254237288136	1	0.3	1	3505.575	2442.26487871822	TRUE	0.713745762711864	1	0.250976570614192	8.05104123913701	0.3
100	an adult	a thief	Terrorist1	1	5	1	Lumberjack	personal	is	kill	is	kill	personally	k	No	9.44335504308566	N/A	-1	0.124743697478992	0.0286444801881048	0.249487394957983	1	0.3	0	3505.575	2442.26487871822	TRUE	0.750512605042017	0	1.39251289631165	8.05084214677401	0.3
100	a pedophile	an astronaut	Terrorist1	1	13	1	Riverbank	personal	is	kill	is	kill	personally	k	No	8.02845516411425	N/A	-1	0.04521484375	0.0182970665233839	0.0904296875	-1	0.1	1	3505.575	2442.26487871822	FALSE	-0.9095703125	1	-0.0225860749926614	8.05104123910691	0.1
100	a life-saving antidote	a rapist	Terrorist1	1	17	1	Tsunami	personal	is	destroy	is	kill	personally	d	Yes	8.34474275441755	N/A	-1	0.0341589147286822	0.0151615959229568	0.0683178294573643	1	0.1	1	3505.575	2442.26487871822	TRUE	0.931682170542636	1	0.293701515280546	8.051041239137	0.1
100	an addict	a soldier	Terrorist1	1	40	1	Tsunami	personal	is	kill	is	kill	personally	k	No	7.49720722320332	N/A	-1	0.823618644067797	0.033596374904528	0.352762711864407	-1	0.4	1	3505.575	2442.26487871822	FALSE	-0.647237288135593	1	-0.553834015933695	8.05104123913701	0.4
100	a pedophile	a judge	Terrorist1	1	31	1	Space Cargo	personal	is	kill	is	kill	personally	k	No	7.97522083865341	N/A	-1	0.953278225806452	0.018052845576451	0.0934435483870968	-1	0.1	1	3505.575	2442.26487871822	FALSE	-0.906556451612903	1	-0.0758204004836021	8.05104123913701	0.1
100	a convict	a mentor	Terrorist1	1	3	1	Lumberjack	personal	is	kill	is	kill	personally	k	No	7.92804560087478	N/A	-1	0.173435114503817	0.0321503104929718	0.346870229007634	-1	0.4	1	3505.575	2442.26487871822	FALSE	-0.653129770992366	1	-0.112898952262562	8.04094455313734	0.4
100	a rapist	a soldier	Terrorist1	1	2	1	Marine	personal	is	kill	is	kill	personally	k	No	7.9098566672694	N/A	-1	0.0383937007874016	0.0166626194104079	0.0767874015748031	-1	0.1	1	3505.575	2442.26487871822	FALSE	-0.923212598425197	1	-0.0692825712122778	7.97913923848168	0.1
100	a rapist	a convict	Terrorist1	1	7	1	Safari	personal	is	kill	is	kill	personally	k	No	7.97968130238774	N/A	-1	0.746914814814815	0.0346036548261975	0.50617037037037	-1	0.6	1	3505.575	2442.26487871822	FALSE	-0.49382962962963	1	-0.0713560109295504	8.05103731331729	0.6
101	a college student	a cockroach	Terrorist1	1	22	1	Missile	personal	is	kill	is	kill	personally	k	Yes	7.41517510961329	N/A	-1	0.986030434782609	0.00949818747349872	0.0279391304347827	1	0.1	1	2566.51282051282	930.441374374065	TRUE	0.972060869565217	1	-0.374685677745909	7.7898607873592	0.1
101	an adult with a deadly contagious disease	a congressman	Terrorist1	1	32	1	Malfunctioning Crane	personal	is	kill	is	kill	personally	d	No	7.49108759353488	N/A	-1	0.590417355371901	0.0426087286755071	0.819165289256198	-1	0.9	1	2566.51282051282	930.441374374065	FALSE	-0.180834710743802	1	-0.267511990862962	7.75859958439784	0.9
101	a rapist	a congressman	Terrorist1	1	10	1	Tsunami	personal	is	kill	is	kill	personally	d	No	7.66996199547358	N/A	-1	0.872868644067797	0.0296919007172673	0.254262711864407	-1	0.3	1	2566.51282051282	930.441374374065	FALSE	-0.745737288135593	1	-0.157578545496591	7.82754054097017	0.3
101	a police officer	a pedophile	Terrorist1	1	4	1	Safari	personal	is	kill	is	kill	personally	k	Yes	8.27001306227379	N/A	-1	0.0471616541353383	0.0175672193791626	0.0943233082706767	1	0.1	1	2566.51282051282	930.441374374065	TRUE	0.905676691729323	1	0.423564352777185	7.8464487094966	0.1
101	a judge	a life-saving antidote	Terrorist1	1	14	1	Space ship	personal	is	kill	is	destroy	personally	k	Yes	7.92008319905323	N/A	-1	0.281688524590164	0.0386166842551	0.563377049180328	-1	0.6	0	2566.51282051282	930.441374374065	FALSE	-0.436622950819672	0	0.105122783420825	7.81496041563241	0.6
101	a thief	an adult with a deadly contagious disease	Terrorist1	1	9	1	Marine	personal	is	kill	is	kill	personally	k	Yes	8.38958706681109	N/A	-1	0.338265384615385	0.0386563172601653	0.676530769230769	-1	0.7	0	2566.51282051282	930.441374374065	FALSE	-0.323469230769231	0	0.558898331584415	7.83068873522668	0.7
101	a terrorist	an assassin	Terrorist1	1	23	1	Missile	personal	is	kill	is	kill	personally	d	No	7.67925142595306	N/A	-1	0.406971774193548	0.0399824930957364	0.813943548387097	-1	0.9	1	2566.51282051282	930.441374374065	FALSE	-0.186056451612903	1	-0.107477581326645	7.7867290072797	0.9
101	a police officer	an adult	Terrorist1	1	35	1	Lumberjack	personal	is	kill	is	kill	personally	d	No	7.63675211243578	N/A	-1	0.5186171875	0.0415755171778906	0.962765625	1	1	0	2566.51282051282	930.441374374065	TRUE	0.037234375	0	-0.112493597390023	7.7492457098258	1
101	a cockroach	an assassin	Terrorist1	1	37	1	Riverbank	personal	is	kill	is	kill	personally	d	No	8.15306194680105	N/A	-1	0.569426229508197	0.04095824548846	0.861147540983606	-1	0.9	1	2566.51282051282	930.441374374065	FALSE	-0.138852459016394	1	0.410045887428081	7.74301605937297	0.9
101	a gang member	a billionaire	Terrorist1	1	29	1	Marine	personal	is	kill	is	kill	personally	d	No	7.56112158953024	N/A	-1	0.800424107142857	0.0361418371462963	0.399151785714286	-1	0.4	1	2566.51282051282	930.441374374065	FALSE	-0.600848214285714	1	-0.206843160212025	7.76796474974226	0.4
101	a college student	a pedophile	Terrorist1	1	33	1	Riverbank	personal	is	kill	is	kill	personally	k	Yes	8.09651291750159	N/A	-1	0.964573770491803	0.0158231596906213	0.0708524590163935	1	0.1	1	2566.51282051282	930.441374374065	TRUE	0.929147540983607	1	0.341032545152149	7.75548037234944	0.1
101	an astronaut	a homeless adult	Terrorist1	1	16	1	Lumberjack	personal	is	kill	is	kill	personally	k	Yes	8.35255436947459	N/A	-1	0.445587121212121	0.0403663030652654	0.891174242424242	1	0.9	1	2566.51282051282	930.441374374065	TRUE	0.108825757575758	1	0.543876432616908	7.80867793685768	0.9
101	a mentor	an adult with a deadly contagious disease	Terrorist1	1	36	1	Lumberjack	personal	is	kill	is	kill	personally	k	Yes	7.54960916515453	N/A	-1	0.746314393939394	0.0351020393607799	0.507371212121212	1	0.6	1	2566.51282051282	930.441374374065	TRUE	0.492628787878788	1	-0.196521093187907	7.74613025834244	0.6
101	a billionaire	a gang member	Terrorist1	1	13	1	Tsunami	personal	is	kill	is	kill	personally	k	Yes	7.98241634682773	N/A	-1	0.800424107142857	0.0361418371462963	0.399151785714286	1	0.4	1	2566.51282051282	930.441374374065	TRUE	0.600848214285714	1	0.164312796596845	7.81810355023089	0.4
101	a congressman	a cockroach	Terrorist1	1	1	1	Space Cargo	personal	is	kill	is	kill	personally	k	Yes	8.43054538469057	N/A	-1	0.889087155963303	0.0294072322682076	0.221825688073394	1	0.3	1	2566.51282051282	930.441374374065	TRUE	0.778174311926606	1	0.574625469890528	7.85591991480004	0.3
101	an addict	a mentor	Terrorist1	1	31	1	Space ship	personal	is	kill	is	kill	personally	d	No	7.2086003379602	N/A	-1	0.771420833333333	0.0373374761509099	0.457158333333333	-1	0.5	1	2566.51282051282	930.441374374065	FALSE	-0.542841666666667	1	-0.553119713016162	7.76172005097636	0.5
101	an addict	a college student	Terrorist1	1	12	1	Space ship	personal	is	kill	is	kill	personally	d	No	7.60339933974067	N/A	-1	0.776439130434783	0.0375033313814123	0.447121739130435	-1	0.5	1	2566.51282051282	930.441374374065	FALSE	-0.552878260869565	1	-0.217848609240346	7.82124794898102	0.5
101	a college student	an orphan	Terrorist1	1	25	1	Nuclear Plant	personal	is	kill	is	kill	personally	d	No	7.96623977655947	N/A	-1	0.43265811965812	0.0440717836729045	0.865316239316239	-1	0.9	1	2566.51282051282	930.441374374065	FALSE	-0.134683760683761	1	0.185770552709365	7.7804692238501	0.9
101	a smartphone	a congressman	Terrorist1	1	20	1	Tsunami	personal	is	destroy	is	kill	personally	d	No	7.83042561782033	N/A	-1	0.650089285714286	0.0447605876484571	0.699821428571429	-1	0.7	1	2566.51282051282	930.441374374065	FALSE	-0.300178571428571	1	0.0342974910407552	7.79612812677958	0.7
101	a life-saving antidote	a cockroach	Terrorist1	1	7	1	Safari	personal	is	destroy	is	kill	personally	k	Yes	7.59387784460512	N/A	-1	0.00956666666666667	0.00812680341971624	0.0191333333333333	1	0.1	1	2566.51282051282	930.441374374065	TRUE	0.980866666666667	1	-0.243111078203674	7.83698892280879	0.1
101	a mentor	an addict	Terrorist1	1	15	1	Nuclear Plant	personal	is	kill	is	kill	personally	k	Yes	7.37588214821501	N/A	-1	0.771420833333333	0.0373374761509099	0.457158333333333	1	0.5	1	2566.51282051282	930.441374374065	TRUE	0.542841666666667	1	-0.435936396462337	7.81181854467735	0.5
101	an elderly person	a rabid possum	Terrorist1	1	21	1	Missile	personal	is	kill	is	kill	personally	k	Yes	8.20849175174038	N/A	-1	0.973573770491803	0.0135916706376055	0.0528524590163935	1	0.1	1	2566.51282051282	930.441374374065	TRUE	0.947147540983607	1	0.415497924716752	7.79299382702363	0.1
101	an elderly person	a police officer	Terrorist1	1	30	1	Lumberjack	personal	is	kill	is	kill	personally	k	Yes	8.19560956728878	N/A	-1	0.44434126984127	0.0432674742653806	0.88868253968254	1	0.9	1	2566.51282051282	930.441374374065	TRUE	0.11131746031746	1	0.430767794699195	7.76484177258958	0.9
101	a gang member	an adult with a deadly contagious disease	Terrorist1	1	38	1	Missile	personal	is	kill	is	kill	personally	d	No	7.93272102748195	N/A	-1	0.365081395348837	0.0401404770615099	0.730162790697674	-1	0.8	1	2566.51282051282	930.441374374065	FALSE	-0.269837209302326	1	0.1928179150681	7.73990311241385	0.8
101	a mentor	a billionaire	Terrorist1	1	17	1	Space Cargo	personal	is	kill	is	kill	personally	k	Yes	7.61923341622681	N/A	-1	0.441786956521739	0.0467619467776302	0.883573913043478	1	0.9	1	2566.51282051282	930.441374374065	TRUE	0.116426086956522	1	-0.186305175438783	7.80553859166559	0.9
101	a thief	an orphan	Terrorist1	1	11	1	Nuclear Plant	personal	is	kill	is	kill	personally	d	No	7.59890045687141	N/A	-1	0.0883739495798319	0.0244391010912545	0.176747899159664	-1	0.2	1	2566.51282051282	930.441374374065	FALSE	-0.823252100840336	1	-0.225493155519821	7.82439361239123	0.2
101	a convict	a thief	Terrorist1	1	3	1	Nuclear Plant	personal	is	kill	is	kill	personally	d	No	7.20489251020467	N/A	-1	0.586798449612403	0.0411776111711639	0.826403100775194	1	0.9	0	2566.51282051282	930.441374374065	TRUE	0.173596899224806	0	-0.644711998311035	7.84960450851571	0.9
101	an assassin	a gang member	Terrorist1	1	26	1	Malfunctioning Crane	personal	is	kill	is	kill	personally	d	No	7.78530518253986	N/A	-1	0.586697580645161	0.041598449334662	0.826604838709677	-1	0.9	1	2566.51282051282	930.441374374065	FALSE	-0.173395161290323	1	0.00796396305204095	7.77734121948782	0.9
101	an adult	a billionaire	Terrorist1	1	19	1	Malfunctioning Crane	personal	is	kill	is	kill	personally	d	No	7.85631957140659	N/A	-1	0.455990990990991	0.0465151401263265	0.911981981981982	1	1	0	2566.51282051282	930.441374374065	TRUE	0.088018018018018	0	0.0570558842727413	7.79926368713385	1
101	a congressman	a rapist	Terrorist1	1	28	1	Safari	personal	is	kill	is	kill	personally	k	Yes	7.83952558170468	N/A	-1	0.872868644067797	0.0296919007172673	0.254262711864407	1	0.3	1	2566.51282051282	930.441374374065	TRUE	0.745737288135593	1	0.068436598765298	7.77108898293938	0.3
101	a gang member	an orphan	Terrorist1	1	2	1	Tsunami	personal	is	kill	is	kill	personally	d	No	7.52131798019924	N/A	-1	0.110205882352941	0.0277617017264551	0.220411764705882	-1	0.3	1	2566.51282051282	930.441374374065	FALSE	-0.779588235294118	1	-0.331443596580786	7.85276157678003	0.3
101	an adult with a deadly contagious disease	a pedophile	Terrorist1	1	8	1	Safari	personal	is	kill	is	kill	personally	d	No	8.40335237499248	N/A	-1	0.187899253731343	0.0319121911513657	0.375798507462687	1	0.4	0	2566.51282051282	930.441374374065	TRUE	0.624201492537313	0	0.56951417932268	7.8338381956698	0.4
101	a mentor	a rapist	Terrorist1	1	6	1	Malfunctioning Crane	personal	is	kill	is	kill	personally	k	Yes	7.36770857237437	N/A	-1	0.955375968992248	0.0173995969362512	0.0892480620155038	1	0.1	1	2566.51282051282	930.441374374065	TRUE	0.910751937984496	1	-0.472432344778743	7.84014091715311	0.1
101	a police officer	a judge	Terrorist1	1	39	1	Marine	personal	is	kill	is	kill	personally	d	No	7.6434829070772	N/A	-1	0.418957364341085	0.0411827154752114	0.837914728682171	1	0.9	0	2566.51282051282	930.441374374065	TRUE	0.162085271317829	0	-0.0933085098845226	7.73679141696172	0.9
101	a cockroach	a pedophile	Terrorist1	1	18	1	Space Cargo	personal	is	kill	is	kill	personally	d	No	7.67740043051481	N/A	-1	0.391896694214876	0.040075643960542	0.783793388429752	1	0.8	0	2566.51282051282	930.441374374065	TRUE	0.216206611570248	0	-0.12500007807864	7.80240050859345	0.8
101	a congressman	a gang member	Terrorist1	1	40	1	Riverbank	personal	is	kill	is	kill	personally	k	Yes	7.60190195987517	N/A	-1	0.724513513513514	0.0412069158809236	0.550972972972973	1	0.6	1	2566.51282051282	930.441374374065	TRUE	0.449027027027027	1	-0.131779012638281	7.73368097251345	0.6
102	a homeless adult	a congressman	Terrorist1	1	11	1	Space ship	personal	is	kill	is	kill	personally	k	No	8.51719319141624	N/A	-1	0.418126050420168	0.0429259165970178	0.836252100840336	1	0.9	0	5009.92307692308	2197.85969314905	TRUE	0.163747899159664	0	-0.0967999158417658	8.613993107258	0.9
102	an adult with a deadly contagious disease	a cockroach	Terrorist1	1	36	1	Tsunami	personal	is	kill	is	kill	personally	d	Yes	8.38320455141292	N/A	-1	0.796366141732283	0.0324477759218237	0.407267716535433	1	0.5	1	5009.92307692308	2197.85969314905	TRUE	0.592732283464567	1	0.183500665517602	8.19970388589532	0.5
102	a rapist	a billionaire	Terrorist1	1	37	1	Tsunami	personal	is	kill	is	kill	personally	k	No	8.15908865466791	N/A	-1	0.912802521008403	0.0241430370291116	0.174394957983193	-1	0.2	1	5009.92307692308	2197.85969314905	FALSE	-0.825605042016807	1	-0.0292375516627814	8.18832620633069	0.2
102	an astronaut	a gang member	Terrorist1	1	26	1	Marine	personal	is	kill	is	kill	personally	d	Yes	7.95822719232231	N/A	-1	0.146109756097561	0.0307347494719367	0.292219512195122	1	0.3	1	5009.92307692308	2197.85969314905	TRUE	0.707780487804878	1	-0.374189692678504	8.33241688500082	0.3
102	a college student	a soldier	Terrorist1	1	7	1	Safari	personal	is	kill	is	kill	personally	d	Yes	8.32796785830549	N/A	-1	0.402823529411765	0.0440041154844106	0.805647058823529	-1	0.9	0	5009.92307692308	2197.85969314905	FALSE	-0.194352941176471	0	-0.382826911221537	8.71079476952703	0.9
102	a rabid possum	a convict	Terrorist1	1	4	1	Safari	personal	is	kill	is	kill	personally	k	No	8.78538658728416	N/A	-1	0.698593984962406	0.0362961969710972	0.602812030075188	-1	0.7	1	5009.92307692308	2197.85969314905	FALSE	-0.397187969924812	1	-0.0053067313096804	8.79069331859384	0.7
102	an adult with a deadly contagious disease	an adult	Terrorist1	1	10	1	Nuclear Plant	personal	is	kill	is	kill	personally	k	No	8.58653266949485	N/A	-1	0.732767441860465	0.0377133491391236	0.53446511627907	-1	0.6	1	5009.92307692308	2197.85969314905	FALSE	-0.46553488372093	1	-0.0506745179416335	8.63720718743648	0.6
102	a life-saving antidote	a smartphone	Terrorist1	1	40	1	Safari	personal	is	destroy	is	destroy	personally	d	Yes	8.13885675069633	N/A	-1	0.894784552845528	0.0282605539709499	0.210430894308943	1	0.3	1	5009.92307692308	2197.85969314905	TRUE	0.789569105691057	1	-0.0171502305663545	8.15600698126268	0.3
102	an adult with a deadly contagious disease	an assassin	Terrorist1	1	38	1	Missile	personal	is	kill	is	kill	personally	d	Yes	8.68996933536666	N/A	-1	0.703007462686567	0.0373453847031057	0.593985074626866	1	0.6	1	5009.92307692308	2197.85969314905	TRUE	0.406014925373134	1	0.512712992012906	8.17725634335375	0.6
102	a rabid possum	a cockroach	Terrorist1	1	14	1	Lumberjack	personal	is	kill	is	kill	personally	d	Yes	8.48198043566049	N/A	-1	0.439381147540984	0.0419709341322325	0.878762295081967	1	0.9	1	5009.92307692308	2197.85969314905	TRUE	0.121237704918033	1	-0.0660711869763624	8.54805162263686	0.9
102	a thief	a gang member	Terrorist1	1	19	1	Riverbank	personal	is	kill	is	kill	personally	d	Yes	8.49821422481843	N/A	-1	0.531546218487395	0.0426380366568949	0.93690756302521	-1	1	0	5009.92307692308	2197.85969314905	FALSE	-0.0630924369747899	0	0.0486950811664784	8.44951914365196	1
102	an astronaut	a life-saving antidote	Terrorist1	1	21	1	Space ship	personal	is	kill	is	destroy	personally	k	No	8.41072094690572	N/A	-1	0.300345238095238	0.0409364299350954	0.600690476190476	-1	0.7	1	5009.92307692308	2197.85969314905	FALSE	-0.399309523809524	1	-0.00301628775793006	8.41373723466365	0.7
102	an assassin	a nun	Terrorist1	1	30	1	Tsunami	personal	is	kill	is	kill	personally	k	No	7.91534816926308	N/A	-1	0.871114173228347	0.0293102915399754	0.257771653543307	-1	0.3	1	5009.92307692308	2197.85969314905	FALSE	-0.742228346456693	1	-0.35958230344921	8.27493047271229	0.3
102	a celebrity	an adult	Terrorist1	1	16	1	Lumberjack	personal	is	kill	is	kill	personally	k	No	8.55024104546244	N/A	-1	0.386696428571429	0.0427592211259445	0.773392857142857	-1	0.8	1	5009.92307692308	2197.85969314905	FALSE	-0.226607142857143	1	0.0432306910439415	8.5070103544185	0.8
102	a police officer	a congressman	Terrorist1	1	32	1	Nuclear Plant	personal	is	kill	is	kill	personally	d	Yes	8.44591198941127	N/A	-1	0.337379166666667	0.0433951137377583	0.674758333333333	1	0.7	1	5009.92307692308	2197.85969314905	TRUE	0.325241666666667	1	0.197444421969644	8.24846756744163	0.7
102	a police officer	a celebrity	Terrorist1	1	31	1	Safari	personal	is	kill	is	kill	personally	d	Yes	8.50309426703674	N/A	-1	0.376553278688525	0.0416179350050378	0.753106557377049	1	0.8	1	5009.92307692308	2197.85969314905	TRUE	0.246893442622951	1	0.241576686001171	8.26151758103557	0.8
102	a judge	a thief	Terrorist1	1	29	1	Lumberjack	personal	is	kill	is	kill	personally	d	Yes	8.14206328310415	N/A	-1	0.848316666666667	0.0320801032091669	0.303366666666667	1	0.4	1	5009.92307692308	2197.85969314905	TRUE	0.696633333333333	1	-0.146653049817136	8.28871633292128	0.4
102	an adult with a deadly contagious disease	an astronaut	Terrorist1	1	22	1	Space Cargo	personal	is	kill	is	kill	personally	k	No	8.42639282708974	N/A	-1	0.278033582089552	0.0364116889825956	0.556067164179105	-1	0.6	1	5009.92307692308	2197.85969314905	FALSE	-0.443932835820895	1	0.0298238213461648	8.39656900574358	0.6
102	a congressman	an adult with a deadly contagious disease	Terrorist1	1	20	1	Space Cargo	personal	is	kill	is	kill	personally	d	Yes	8.6195692580331	N/A	-1	0.590417355371901	0.0426087286755071	0.819165289256198	1	0.9	1	5009.92307692308	2197.85969314905	TRUE	0.180834710743802	1	0.188186402303344	8.43138285572976	0.9
102	a terrorist	a smartphone	Terrorist1	1	6	1	Nuclear Plant	personal	is	kill	is	destroy	personally	k	No	8.70450228972123	N/A	-1	0.186216666666667	0.0341520086235987	0.372433333333333	-1	0.4	1	5009.92307692308	2197.85969314905	FALSE	-0.627566666666667	1	-0.0321982967676764	8.73670058648891	0.4
102	a cockroach	a billionaire	Terrorist1	1	12	1	Missile	personal	is	kill	is	kill	personally	k	No	8.7465573545435	N/A	-1	0.934636363636364	0.022333748386201	0.130727272727273	-1	0.2	1	5009.92307692308	2197.85969314905	FALSE	-0.869272727272727	1	0.155150283854008	8.5914070706895	0.2
102	a smartphone	a nun	Terrorist1	1	27	1	Missile	personal	is	destroy	is	kill	personally	k	No	7.9218984110238	N/A	-1	0.773237903225806	0.0368064001828361	0.453524193548387	-1	0.5	1	5009.92307692308	2197.85969314905	FALSE	-0.546475806451613	1	-0.395550320423865	8.31744873144766	0.5
102	a congressman	a rabid possum	Terrorist1	1	34	1	Space Cargo	personal	is	kill	is	kill	personally	d	Yes	8.25270667656764	N/A	-1	0.8705	0.0302090858370011	0.259	1	0.3	1	5009.92307692308	2197.85969314905	TRUE	0.741	1	0.0292895062925123	8.22341717027513	0.3
102	an assassin	an addict	Terrorist1	1	28	1	Space ship	personal	is	kill	is	kill	personally	d	Yes	8.40043463080604	N/A	-1	0.724127049180328	0.038308691203758	0.551745901639344	-1	0.6	0	5009.92307692308	2197.85969314905	FALSE	-0.448254098360656	0	0.0975490981116938	8.30288553269435	0.6
102	an astronaut	a life-saving antidote	Terrorist1	1	9	1	Marine	personal	is	kill	is	destroy	personally	k	No	8.41005331585833	N/A	-1	0.300345238095238	0.0409364299350954	0.600690476190476	-1	0.7	1	5009.92307692308	2197.85969314905	FALSE	-0.399309523809524	1	-0.251013459199836	8.66106677505817	0.7
102	a mentor	a nun	Terrorist1	1	23	1	Tsunami	personal	is	kill	is	kill	personally	d	Yes	8.57810012631976	N/A	-1	0.601492	0.0424672273806685	0.797016	1	0.8	1	5009.92307692308	2197.85969314905	TRUE	0.202984	1	0.198234872920628	8.37986525339913	0.8
102	a rabid possum	an addict	Terrorist1	1	1	1	Space ship	personal	is	kill	is	kill	personally	k	No	9.12139986267954	N/A	-1	0.808901639344262	0.0343832674942287	0.382196721311475	-1	0.4	1	5009.92307692308	2197.85969314905	FALSE	-0.617803278688525	1	0.243955791287119	8.87744407139242	0.4
102	an adult	a police officer	Terrorist1	1	15	1	Missile	personal	is	kill	is	kill	personally	d	Yes	8.93866287366612	N/A	-1	0.5186171875	0.0415755171778906	0.962765625	-1	1	0	5009.92307692308	2197.85969314905	FALSE	-0.037234375	0	0.411413278594186	8.52724959507193	1
102	an elderly person	a terrorist	Terrorist1	1	18	1	Riverbank	personal	is	kill	is	kill	personally	d	Yes	8.19643681123503	N/A	-1	0.0447393162393162	0.0181747701046384	0.0894786324786325	1	0.1	1	5009.92307692308	2197.85969314905	TRUE	0.910521367521367	1	-0.271722931031425	8.46815974226645	0.1
102	a billionaire	a congressman	Terrorist1	1	24	1	Malfunctioning Crane	personal	is	kill	is	kill	personally	k	No	8.0774471493312	N/A	-1	0.603596153846154	0.0466995107666484	0.792807692307692	1	0.8	0	5009.92307692308	2197.85969314905	TRUE	0.207192307692308	0	-0.286166262152067	8.36361341148327	0.8
102	a pedophile	an orphan	Terrorist1	1	25	1	Malfunctioning Crane	personal	is	kill	is	kill	personally	k	No	8.1101268019411	N/A	-1	0.0327967479674797	0.0150291348165734	0.0655934959349593	-1	0.1	1	5009.92307692308	2197.85969314905	FALSE	-0.934406504065041	1	-0.237674451877716	8.34780125381882	0.1
102	an orphan	an adult	Terrorist1	1	13	1	Marine	personal	is	kill	is	kill	personally	d	Yes	8.49984355308112	N/A	-1	0.416021186440678	0.0439968568211195	0.832042372881356	1	0.9	1	5009.92307692308	2197.85969314905	TRUE	0.167957627118644	1	-0.0695885332905828	8.56943208637171	0.9
102	a cockroach	a celebrity	Terrorist1	1	39	1	Lumberjack	personal	is	kill	is	kill	personally	k	No	7.84267147497946	N/A	-1	0.907536363636364	0.025968701630491	0.184927272727273	-1	0.2	1	5009.92307692308	2197.85969314905	FALSE	-0.815072727272727	1	-0.323814494184012	8.16648596916347	0.2
102	an assassin	a rapist	Terrorist1	1	17	1	Space Cargo	personal	is	kill	is	kill	personally	k	No	9.57886483227206	N/A	-1	0.376809160305344	0.0378201733093437	0.753618320610687	1	0.8	0	5009.92307692308	2197.85969314905	TRUE	0.246381679389313	0	1.09154615747226	8.4873186747998	0.8
102	a celebrity	a convict	Terrorist1	1	35	1	Riverbank	personal	is	kill	is	kill	personally	d	Yes	8.01730750768858	N/A	-1	0.715151639344262	0.0384543371096964	0.569696721311475	1	0.6	1	5009.92307692308	2197.85969314905	TRUE	0.430303278688525	1	-0.194090433728924	8.21139794141751	0.6
102	an adult	a billionaire	Terrorist1	1	3	1	Nuclear Plant	personal	is	kill	is	kill	personally	d	Yes	8.6020856584342	N/A	-1	0.455990990990991	0.0465151401263265	0.911981981981982	1	1	1	5009.92307692308	2197.85969314905	TRUE	0.088018018018018	1	-0.216735193757604	8.8188208521918	1
102	a life-saving antidote	a cockroach	Terrorist1	1	33	1	Riverbank	personal	is	destroy	is	kill	personally	d	Yes	8.33567131479285	N/A	-1	0.00956666666666667	0.00812680341971624	0.0191333333333333	1	0.1	1	5009.92307692308	2197.85969314905	TRUE	0.980866666666667	1	0.0999007003205357	8.23577061447231	0.1
102	a judge	a soldier	Terrorist1	1	2	1	Malfunctioning Crane	personal	is	kill	is	kill	personally	k	No	9.14825217966276	N/A	-1	0.324652892561983	0.0428261590203817	0.649305785123967	-1	0.7	1	5009.92307692308	2197.85969314905	FALSE	-0.350694214876033	1	0.300521659403008	8.84773052025975	0.7
102	a thief	a smartphone	Terrorist1	1	5	1	Malfunctioning Crane	personal	is	kill	is	destroy	personally	d	Yes	8.50065722277614	N/A	-1	0.344004132231405	0.0419167771033713	0.68800826446281	-1	0.7	0	5009.92307692308	2197.85969314905	FALSE	-0.31199173553719	0	-0.262669536490721	8.76332675926686	0.7
103	a congressman	a cockroach	Terrorist1	1	35	1	Safari	personal	is	kill	is	kill	personally	k	Yes	7.68017564043659	N/A	-1	0.889087155963303	0.0294072322682076	0.221825688073394	1	0.3	1	5114.35	2301.73380079965	TRUE	0.778174311926606	1	-0.716594621626428	8.39677026206302	0.3
103	an elderly person	a soldier	Terrorist1	1	34	1	Nuclear Plant	personal	is	kill	is	kill	personally	d	No	8.53286967080125	N/A	-1	0.541203389830509	0.0422258319464129	0.917593220338983	-1	1	1	5114.35	2301.73380079965	FALSE	-0.0824067796610169	1	0.13609940871223	8.39677026208902	1
103	a congressman	a convict	Terrorist1	1	21	1	Missile	personal	is	kill	is	kill	personally	k	Yes	8.08271113423758	N/A	-1	0.675483333333333	0.0410782915558602	0.649033333333333	1	0.7	1	5114.35	2301.73380079965	TRUE	0.350966666666667	1	-0.314059614014655	8.39677074825224	0.7
103	a judge	a rabid possum	Terrorist1	1	15	1	Space ship	personal	is	kill	is	kill	personally	k	Yes	7.67275789664251	N/A	-1	0.966270161290323	0.0148841129102173	0.0674596774193548	1	0.1	1	5114.35	2301.73380079965	TRUE	0.932540322580645	1	-0.724045610252722	8.39680350689523	0.1
103	a homeless adult	an elderly person	Terrorist1	1	37	1	Malfunctioning Crane	personal	is	kill	is	kill	personally	d	No	8.59655874679698	N/A	-1	0.34888	0.0404506347768963	0.69776	-1	0.7	1	5114.35	2301.73380079965	FALSE	-0.30224	1	0.199788484753174	8.3967702620438	0.7
103	a police officer	a judge	Terrorist1	1	36	1	Missile	personal	is	kill	is	kill	personally	k	Yes	9.08523056093334	N/A	-1	0.418957364341085	0.0411827154752114	0.837914728682171	1	0.9	1	5114.35	2301.73380079965	TRUE	0.162085271317829	1	0.688460298883177	8.39677026205016	0.9
103	a rapist	an elderly person	Terrorist1	1	6	1	Riverbank	personal	is	kill	is	kill	personally	d	No	8.85166342536678	N/A	-1	0.0482741935483871	0.0188979943205681	0.0965483870967742	-1	0.1	1	5114.35	2301.73380079965	FALSE	-0.903451612903226	1	0.436097003371216	8.41556642199556	0.1
103	a pedophile	an assassin	Terrorist1	1	2	1	Safari	personal	is	kill	is	kill	personally	d	No	8.91058571829013	N/A	-1	0.35796875	0.037146122600724	0.7159375	-1	0.8	1	5114.35	2301.73380079965	FALSE	-0.2840625	1	0.199523386347591	8.71106233194254	0.8
103	an orphan	an adult	Terrorist1	1	39	1	Lumberjack	personal	is	kill	is	kill	personally	k	Yes	8.43010908450912	N/A	-1	0.416021186440678	0.0439968568211195	0.832042372881356	1	0.9	1	5114.35	2301.73380079965	TRUE	0.167957627118644	1	0.0333388224700197	8.39677026203911	0.9
103	a smartphone	a homeless adult	Terrorist1	1	40	1	Tsunami	personal	is	destroy	is	kill	personally	d	No	8.32044811395656	N/A	-1	0.769472868217054	0.0374794230601193	0.461054263565891	-1	0.5	1	5114.35	2301.73380079965	FALSE	-0.538945736434109	1	-0.0763221480817773	8.39677026203834	0.5
103	a terrorist	a billionaire	Terrorist1	1	4	1	Riverbank	personal	is	kill	is	kill	personally	d	No	8.45510499910282	N/A	-1	0.9096875	0.0257277340795336	0.180625	-1	0.2	1	5114.35	2301.73380079965	FALSE	-0.819375	1	-0.0185254217913364	8.47363042089415	0.2
103	a congressman	an assassin	Terrorist1	1	27	1	Nuclear Plant	personal	is	kill	is	kill	personally	k	Yes	7.92371033396924	N/A	-1	0.788103448275862	0.0358151636643286	0.423793103448276	1	0.5	1	5114.35	2301.73380079965	TRUE	0.576206896551724	1	-0.473059935179363	8.3967702691486	0.5
103	a gang member	a convict	Terrorist1	1	28	1	Missile	personal	is	kill	is	kill	personally	d	No	9.0217190130337	N/A	-1	0.55348828125	0.0408366708104029	0.8930234375	-1	0.9	1	5114.35	2301.73380079965	FALSE	-0.1069765625	1	0.624948747479575	8.39677026555412	0.9
103	a homeless adult	a rapist	Terrorist1	1	5	1	Marine	personal	is	kill	is	kill	personally	k	Yes	8.32190796823042	N/A	-1	0.92284328358209	0.0211262489472413	0.154313432835821	1	0.2	1	5114.35	2301.73380079965	TRUE	0.845686567164179	1	-0.112871185401938	8.43477915363236	0.2
103	a thief	a mentor	Terrorist1	1	10	1	Malfunctioning Crane	personal	is	kill	is	kill	personally	d	No	7.96067260838812	N/A	-1	0.890504098360656	0.0264293417074441	0.218991803278689	-1	0.3	1	5114.35	2301.73380079965	FALSE	-0.781008196721311	1	-0.437221753373882	8.397894361762	0.3
103	a smartphone	a life-saving antidote	Terrorist1	1	32	1	Space ship	personal	is	destroy	is	destroy	personally	d	No	8.17723488551019	N/A	-1	0.894784552845528	0.0282605539709499	0.210430894308943	-1	0.3	1	5114.35	2301.73380079965	FALSE	-0.789569105691057	1	-0.219535376737698	8.39677026224789	0.3
103	a smartphone	a life-saving antidote	Terrorist1	1	30	1	Malfunctioning Crane	personal	is	destroy	is	destroy	personally	d	No	8.53973715585113	N/A	-1	0.894784552845528	0.0282605539709499	0.210430894308943	-1	0.3	1	5114.35	2301.73380079965	FALSE	-0.789569105691057	1	0.142966892953577	8.39677026289755	0.3
103	an assassin	a convict	Terrorist1	1	19	1	Riverbank	personal	is	kill	is	kill	personally	d	No	8.60630236648801	N/A	-1	0.632334586466165	0.0396665408615025	0.735330827067669	-1	0.8	1	5114.35	2301.73380079965	FALSE	-0.264669172932331	1	0.209530116249891	8.39677225023812	0.8
103	a smartphone	an assassin	Terrorist1	1	24	1	Safari	personal	is	destroy	is	kill	personally	d	No	8.24695803256818	N/A	-1	0.298688	0.0395016840025718	0.597376	1	0.6	0	5114.35	2301.73380079965	TRUE	0.402624	0	-0.149812288269747	8.39677032083792	0.6
103	a life-saving antidote	a terrorist	Terrorist1	1	31	1	Lumberjack	personal	is	destroy	is	kill	personally	k	Yes	8.30226579487337	N/A	-1	0.0272008196721311	0.0145106085142059	0.0544016393442623	1	0.1	1	5114.35	2301.73380079965	TRUE	0.945598360655738	1	-0.0945044675894895	8.39677026246286	0.1
103	a homeless adult	a pedophile	Terrorist1	1	3	1	Lumberjack	personal	is	kill	is	kill	personally	k	Yes	8.40200678160712	N/A	-1	0.935996212121212	0.0191870359218625	0.128007575757576	1	0.2	1	5114.35	2301.73380079965	TRUE	0.871992424242424	1	-0.15018721870829	8.55219400031541	0.2
103	an adult with a deadly contagious disease	an addict	Terrorist1	1	25	1	Marine	personal	is	kill	is	kill	personally	d	No	8.59951023390545	N/A	-1	0.501043307086614	0.0445614486151049	0.997913385826772	-1	1	1	5114.35	2301.73380079965	FALSE	-0.00208661417322797	1	0.20273994278992	8.39677029111553	1
103	a rapist	a smartphone	Terrorist1	1	38	1	Nuclear Plant	personal	is	kill	is	destroy	personally	d	No	8.80071662871916	N/A	-1	0.171795275590551	0.032979738451044	0.343590551181102	-1	0.4	1	5114.35	2301.73380079965	FALSE	-0.656409448818898	1	0.403946366678499	8.39677026204066	0.4
103	a judge	a nun	Terrorist1	1	16	1	Lumberjack	personal	is	kill	is	kill	personally	d	No	8.17667277194846	N/A	-1	0.51370325203252	0.044583257053692	0.972593495934959	1	1	0	5114.35	2301.73380079965	TRUE	0.027406504065041	0	-0.220113930338657	8.39678670228711	1
103	a police officer	a gang member	Terrorist1	1	1	1	Marine	personal	is	kill	is	kill	personally	k	Yes	8.97651497231511	N/A	-1	0.15042578125	0.0310331917629791	0.3008515625	1	0.4	1	5114.35	2301.73380079965	TRUE	0.6991484375	1	-0.0558049573579922	9.0323199296731	0.4
103	an astronaut	a pedophile	Terrorist1	1	33	1	Riverbank	personal	is	kill	is	kill	personally	k	Yes	8.75431854025087	N/A	-1	0.04521484375	0.0182970665233839	0.0904296875	1	0.1	1	5114.35	2301.73380079965	TRUE	0.9095703125	1	0.357548278109281	8.39677026214158	0.1
103	a life-saving antidote	a terrorist	Terrorist1	1	14	1	Space ship	personal	is	destroy	is	kill	personally	k	Yes	8.05293303679757	N/A	-1	0.0272008196721311	0.0145106085142059	0.0544016393442623	1	0.1	1	5114.35	2301.73380079965	TRUE	0.945598360655738	1	-0.343904451747626	8.39683748854519	0.1
103	a pedophile	an assassin	Terrorist1	1	23	1	Tsunami	personal	is	kill	is	kill	personally	d	No	8.19118600464279	N/A	-1	0.35796875	0.037146122600724	0.7159375	-1	0.8	1	5114.35	2301.73380079965	FALSE	-0.2840625	1	-0.20558437629864	8.39677038094143	0.8
103	a thief	an astronaut	Terrorist1	1	7	1	Safari	personal	is	kill	is	kill	personally	d	No	7.56837926783652	N/A	-1	0.13008064516129	0.0300157703876853	0.260161290322581	-1	0.3	1	5114.35	2301.73380079965	FALSE	-0.739838709677419	1	-0.837686072650926	8.40606534048745	0.3
103	a smartphone	a celebrity	Terrorist1	1	11	1	Space Cargo	personal	is	destroy	is	kill	personally	d	No	8.57414047185799	N/A	-1	0.701517543859649	0.0438928022145157	0.596964912280702	-1	0.6	1	5114.35	2301.73380079965	FALSE	-0.403035087719298	1	0.176814319939318	8.39732615191867	0.6
103	a life-saving antidote	a billionaire	Terrorist1	1	12	1	Tsunami	personal	is	destroy	is	kill	personally	k	Yes	8.75542238014849	N/A	-1	0.317521739130435	0.0415075642183342	0.63504347826087	1	0.7	1	5114.35	2301.73380079965	TRUE	0.36495652173913	1	0.358377219404693	8.3970451607438	0.7
103	a rabid possum	an assassin	Terrorist1	1	13	1	Nuclear Plant	personal	is	kill	is	kill	personally	d	No	8.71817293002873	N/A	-1	0.541968992248062	0.0419414067274091	0.916062015503876	-1	1	1	5114.35	2301.73380079965	FALSE	-0.083937984496124	1	0.321266725062069	8.39690620496666	1
103	an adult with a deadly contagious disease	a billionaire	Terrorist1	1	18	1	Space Cargo	personal	is	kill	is	kill	personally	d	No	8.57791192645094	N/A	-1	0.679909836065574	0.0410855482355913	0.640180327868852	-1	0.7	1	5114.35	2301.73380079965	FALSE	-0.359819672131148	1	0.181137643948601	8.39677428250234	0.7
103	an orphan	a celebrity	Terrorist1	1	9	1	Missile	personal	is	kill	is	kill	personally	k	Yes	9.14920937197195	N/A	-1	0.312214285714286	0.0426892506026397	0.624428571428571	1	0.7	1	5114.35	2301.73380079965	TRUE	0.375571428571429	1	0.750165997518717	8.39904337445323	0.7
103	a billionaire	a smartphone	Terrorist1	1	22	1	Space Cargo	personal	is	kill	is	destroy	personally	k	Yes	8.12385426310591	N/A	-1	0.751703539823009	0.0405160004946282	0.496592920353982	1	0.5	1	5114.35	2301.73380079965	TRUE	0.503407079646018	1	-0.272916239374577	8.39677050248049	0.5
104	a thief	a smartphone	Terrorist1	1	34	1	Space ship	personal	is	kill	is	destroy	personally	d	Yes	7.92443418488756	N/A	-1	0.344004132231405	0.0419167771033713	0.68800826446281	-1	0.7	0	4540.925	2603.1705854198	FALSE	-0.31199173553719	0	-0.0855909905996706	8.01002517548723	0.7
104	a mentor	an adult	Terrorist1	1	4	1	Space Cargo	personal	is	kill	is	kill	personally	d	Yes	9.61447125707121	N/A	-1	0.517301652892562	0.0447574930792803	0.965396694214876	1	1	1	4540.925	2603.1705854198	TRUE	0.034603305785124	1	0.952413345599329	8.66205791147188	1
104	a college student	a rapist	Terrorist1	1	12	1	Riverbank	personal	is	kill	is	kill	personally	d	Yes	8.02027047281924	N/A	-1	0.955165322580645	0.0184868627503233	0.0896693548387097	1	0.1	1	4540.925	2603.1705854198	TRUE	0.91033064516129	1	-0.46791204239007	8.48818251520931	0.1
104	a nun	a celebrity	Terrorist1	1	11	1	Nuclear Plant	personal	is	kill	is	kill	personally	d	Yes	8.44440742169058	N/A	-1	0.458625	0.0446234943674416	0.91725	1	1	1	4540.925	2603.1705854198	TRUE	0.08275	1	-0.0655095180515453	8.50991693974213	1
104	an orphan	a gang member	Terrorist1	1	2	1	Tsunami	personal	is	kill	is	kill	personally	d	Yes	8.52178264375005	N/A	-1	0.110205882352941	0.0277617017264551	0.220411764705882	1	0.3	1	4540.925	2603.1705854198	TRUE	0.779588235294118	1	-0.18374411678748	8.70552676053753	0.3
104	an elderly person	a rapist	Terrorist1	1	27	1	Marine	personal	is	kill	is	kill	personally	d	Yes	7.86787149039632	N/A	-1	0.0482741935483871	0.0188979943205681	0.0965483870967742	1	0.1	1	4540.925	2603.1705854198	TRUE	0.903451612903226	1	-0.294294656820661	8.16216614721698	0.1
104	a congressman	a billionaire	Terrorist1	1	29	1	Missile	personal	is	kill	is	kill	personally	k	No	8.97941663334301	N/A	-1	0.603596153846154	0.0466995107666484	0.792807692307692	-1	0.8	1	4540.925	2603.1705854198	FALSE	-0.207192307692308	1	0.860719335191671	8.11869729815134	0.8
104	a judge	a cockroach	Terrorist1	1	19	1	Nuclear Plant	personal	is	kill	is	kill	personally	d	Yes	8.01565761455734	N/A	-1	0.972495726495726	0.014618636618766	0.0550085470085471	1	0.1	1	4540.925	2603.1705854198	TRUE	0.944991452991453	1	-0.320383928922217	8.33604154347956	0.1
104	an elderly person	a convict	Terrorist1	1	20	1	Lumberjack	personal	is	kill	is	kill	personally	d	Yes	7.84658997529119	N/A	-1	0.158904761904762	0.0300848985417712	0.317809523809524	1	0.4	1	4540.925	2603.1705854198	TRUE	0.682190476190476	1	-0.467717143655548	8.31430711894673	0.4
104	a mentor	an elderly person	Terrorist1	1	25	1	Marine	personal	is	kill	is	kill	personally	d	Yes	8.11522197256233	N/A	-1	0.439108333333333	0.0437438930704474	0.878216666666667	-1	0.9	0	4540.925	2603.1705854198	FALSE	-0.121783333333333	0	-0.0904130237202967	8.20563499628263	0.9
104	an assassin	a soldier	Terrorist1	1	35	1	Space ship	personal	is	kill	is	kill	personally	k	No	7.9672801789422	N/A	-1	0.9263	0.0227412216726183	0.1474	-1	0.2	1	4540.925	2603.1705854198	FALSE	-0.8526	1	-0.0210105720122087	7.98829075095441	0.2
104	an addict	a pedophile	Terrorist1	1	10	1	Tsunami	personal	is	kill	is	kill	personally	d	Yes	8.76717339668401	N/A	-1	0.15049173553719	0.0299568238226622	0.30098347107438	1	0.4	1	4540.925	2603.1705854198	TRUE	0.69901652892562	1	0.235522032409055	8.53165136427495	0.4
104	a college student	a judge	Terrorist1	1	8	1	Tsunami	personal	is	kill	is	kill	personally	d	Yes	8.63621989783788	N/A	-1	0.588745762711864	0.0436924179255189	0.822508474576271	1	0.9	1	4540.925	2603.1705854198	TRUE	0.177491525423729	1	0.0610996844972824	8.5751202133406	0.9
104	an addict	an orphan	Terrorist1	1	37	1	Space Cargo	personal	is	kill	is	kill	personally	k	No	7.77233157516961	N/A	-1	0.183042735042735	0.03661901980676	0.36608547008547	-1	0.4	1	4540.925	2603.1705854198	FALSE	-0.63391452991453	1	-0.172490326719152	7.94482190188877	0.4
104	a judge	an astronaut	Terrorist1	1	21	1	Missile	personal	is	kill	is	kill	personally	k	No	8.20903626577507	N/A	-1	0.460862903225806	0.0435424451166074	0.921725806451613	-1	1	1	4540.925	2603.1705854198	FALSE	-0.078274193548387	1	-0.0835364286388423	8.29257269441391	1
104	a thief	a celebrity	Terrorist1	1	13	1	Marine	personal	is	kill	is	kill	personally	k	No	8.28273588020175	N/A	-1	0.788606194690265	0.0370892112917567	0.422787610619469	-1	0.5	1	4540.925	2603.1705854198	FALSE	-0.577212389380531	1	-0.183712210474733	8.46644809067649	0.5
104	an orphan	a homeless adult	Terrorist1	1	31	1	Space ship	personal	is	kill	is	kill	personally	d	Yes	8.57168137670031	N/A	-1	0.330566929133858	0.0407448570047656	0.661133858267717	1	0.7	1	4540.925	2603.1705854198	TRUE	0.338866141732283	1	0.496452927614611	8.0752284490857	0.7
104	a billionaire	a convict	Terrorist1	1	28	1	Nuclear Plant	personal	is	kill	is	kill	personally	d	Yes	8.34640487043596	N/A	-1	0.758987603305785	0.0371110342251927	0.48202479338843	1	0.5	1	4540.925	2603.1705854198	TRUE	0.51797520661157	1	0.205973147751795	8.14043172268416	0.5
104	a police officer	a homeless adult	Terrorist1	1	32	1	Missile	personal	is	kill	is	kill	personally	d	Yes	8.84014587794994	N/A	-1	0.398463503649635	0.0415829069492661	0.79692700729927	1	0.8	1	4540.925	2603.1705854198	TRUE	0.20307299270073	1	0.786651853397064	8.05349402455287	0.8
104	an addict	a billionaire	Terrorist1	1	5	1	Lumberjack	personal	is	kill	is	kill	personally	d	Yes	8.95286414158147	N/A	-1	0.694354545454545	0.0435356724567781	0.611290909090909	-1	0.7	0	4540.925	2603.1705854198	FALSE	-0.388709090909091	0	0.312540654642408	8.64032348693906	0.7
104	a smartphone	an assassin	Terrorist1	1	38	1	Space Cargo	personal	is	destroy	is	kill	personally	k	No	8.21581779183245	N/A	-1	0.298688	0.0395016840025718	0.597376	1	0.6	0	4540.925	2603.1705854198	TRUE	0.402624	0	0.292730314476509	7.92308747735594	0.6
104	a gang member	a rabid possum	Terrorist1	1	16	1	Malfunctioning Crane	personal	is	kill	is	kill	personally	d	Yes	8.54966038155374	N/A	-1	0.649120967741936	0.0404788207821599	0.701758064516129	1	0.8	1	4540.925	2603.1705854198	TRUE	0.298241935483871	1	0.148415564475718	8.40124481707802	0.8
104	a rabid possum	a pedophile	Terrorist1	1	30	1	Safari	personal	is	kill	is	kill	personally	k	No	8.14612951002541	N/A	-1	0.3520234375	0.0378515366945483	0.704046875	1	0.8	0	4540.925	2603.1705854198	TRUE	0.295953125	0	0.0491666364068877	8.09696287361852	0.8
104	an orphan	a judge	Terrorist1	1	17	1	Safari	personal	is	kill	is	kill	personally	k	No	7.98480338973441	N/A	-1	0.34886974789916	0.0414340435398385	0.697739495798319	1	0.7	0	4540.925	2603.1705854198	TRUE	0.302260504201681	0	-0.394707002810794	8.3795103925452	0.7
104	an addict	a pedophile	Terrorist1	1	14	1	Marine	personal	is	kill	is	kill	personally	d	Yes	7.89618060861549	N/A	-1	0.15049173553719	0.0299568238226622	0.30098347107438	1	0.4	1	4540.925	2603.1705854198	TRUE	0.69901652892562	1	-0.548533057528173	8.44471366614366	0.4
104	a celebrity	a life-saving antidote	Terrorist1	1	7	1	Nuclear Plant	personal	is	kill	is	destroy	personally	k	No	8.4084937744929	N/A	-1	0.251382608695652	0.0387220706578808	0.502765217391304	-1	0.6	1	4540.925	2603.1705854198	FALSE	-0.497234782608696	1	-0.18836086338052	8.59685463787342	0.6
104	a billionaire	a pedophile	Terrorist1	1	36	1	Missile	personal	is	kill	is	kill	personally	d	Yes	8.09193345597989	N/A	-1	0.925719827586207	0.022398749392254	0.148560344827586	1	0.2	1	4540.925	2603.1705854198	TRUE	0.851439655172414	1	0.125377129558306	7.96655632642159	0.2
104	a thief	a billionaire	Terrorist1	1	33	1	Malfunctioning Crane	personal	is	kill	is	kill	personally	k	No	8.03203531439882	N/A	-1	0.826482142857143	0.0343610296918462	0.347035714285714	-1	0.4	1	4540.925	2603.1705854198	FALSE	-0.652964285714286	1	0.000275714378771497	8.03175960002005	0.4
104	an assassin	a celebrity	Terrorist1	1	15	1	Space ship	personal	is	kill	is	kill	personally	k	No	8.16394095475501	N/A	-1	0.819038461538461	0.0362089063579861	0.361923076923077	-1	0.4	1	4540.925	2603.1705854198	FALSE	-0.638076923076923	1	-0.259038286855835	8.42297924161084	0.4
104	a rapist	a gang member	Terrorist1	1	6	1	Malfunctioning Crane	personal	is	kill	is	kill	personally	k	No	9.34914533485336	N/A	-1	0.717281746031746	0.0359890721325269	0.565436507936508	-1	0.6	1	4540.925	2603.1705854198	FALSE	-0.434563492063492	1	0.730556272447126	8.61858906240624	0.6
104	a congressman	a rapist	Terrorist1	1	40	1	Malfunctioning Crane	personal	is	kill	is	kill	personally	d	Yes	7.70751219460034	N/A	-1	0.872868644067797	0.0296919007172673	0.254262711864407	1	0.3	1	4540.925	2603.1705854198	TRUE	0.745737288135593	1	-0.17210643368996	7.8796186282903	0.3
104	a cockroach	an orphan	Terrorist1	1	26	1	Lumberjack	personal	is	kill	is	kill	personally	k	No	7.52185925220163	N/A	-1	0.987119658119658	0.00981891252785444	0.0257606837606839	-1	0.1	1	4540.925	2603.1705854198	FALSE	-0.974239316239316	1	-0.662041319548175	8.1839005717498	0.1
104	a gang member	a life-saving antidote	Terrorist1	1	22	1	Tsunami	personal	is	kill	is	destroy	personally	k	No	8.0861025356691	N/A	-1	0.097827868852459	0.0270885167236823	0.195655737704918	-1	0.2	1	4540.925	2603.1705854198	FALSE	-0.804344262295082	1	-0.184735734211991	8.27083826988109	0.2
104	a pedophile	a smartphone	Terrorist1	1	23	1	Space Cargo	personal	is	kill	is	destroy	personally	d	Yes	8.39389497507174	N/A	-1	0.1393	0.0304994461624505	0.2786	-1	0.3	0	4540.925	2603.1705854198	FALSE	-0.7214	0	0.144791129723474	8.24910384534827	0.3
104	a police officer	an addict	Terrorist1	1	18	1	Lumberjack	personal	is	kill	is	kill	personally	d	Yes	8.20385137218388	N/A	-1	0.755444444444444	0.0373379061935243	0.489111111111111	1	0.5	1	4540.925	2603.1705854198	TRUE	0.510888888888889	1	-0.153924595828499	8.35777596801238	0.5
104	a celebrity	a soldier	Terrorist1	1	24	1	Safari	personal	is	kill	is	kill	personally	k	No	7.82444593087762	N/A	-1	0.287587719298246	0.0416794545024301	0.575175438596491	-1	0.6	1	4540.925	2603.1705854198	FALSE	-0.424824561403509	1	-0.402923489937828	8.22736942081545	0.6
105	an orphan	a rapist	Terrorist1	1	23	1	Safari	personal	is	kill	is	kill	personally	k	Yes	8.72225423517968	N/A	-1	0.0397698412698413	0.016757758132585	0.0795396825396826	1	0.1	1	11214.8	5981.39280238393	TRUE	0.920460317460317	1	-0.457408511143624	9.17966274632331	0.1
105	a convict	a cockroach	Terrorist1	1	10	1	Missile	personal	is	kill	is	kill	personally	k	Yes	10.0327159505439	N/A	-1	0.729218253968254	0.0374582859734114	0.541563492063492	1	0.6	1	11214.8	5981.39280238393	TRUE	0.458436507936508	1	0.682829224229039	9.34988672631487	0.6
105	a convict	a soldier	Terrorist1	1	11	1	Nuclear Plant	personal	is	kill	is	kill	personally	d	No	9.23337307108675	N/A	-1	0.140184615384615	0.0297073882973916	0.280369230769231	-1	0.3	1	11214.8	5981.39280238393	FALSE	-0.719630769230769	1	-0.103308174414492	9.33668124550125	0.3
105	a college student	a judge	Terrorist1	1	17	1	Tsunami	personal	is	kill	is	kill	personally	k	Yes	8.83462822201737	N/A	-1	0.588745762711864	0.0436924179255189	0.822508474576271	1	0.9	1	11214.8	5981.39280238393	TRUE	0.177491525423729	1	-0.423210888899568	9.25783911091693	0.9
105	an adult with a deadly contagious disease	a congressman	Terrorist1	1	20	1	Lumberjack	personal	is	kill	is	kill	personally	d	No	9.48044384215367	N/A	-1	0.590417355371901	0.0426087286755071	0.819165289256198	-1	0.9	1	11214.8	5981.39280238393	FALSE	-0.180834710743802	1	0.261775782290625	9.21866805986305	0.9
105	a thief	a cockroach	Terrorist1	1	31	1	Riverbank	personal	is	kill	is	kill	personally	k	Yes	9.2058302164983	N/A	-1	0.642260683760684	0.043284938389608	0.715478632478632	1	0.8	1	11214.8	5981.39280238393	TRUE	0.284521367521368	1	0.12937669093273	9.07645352556557	0.8
105	an adult	a rapist	Terrorist1	1	2	1	Space ship	personal	is	kill	is	kill	personally	k	Yes	9.00822418785405	N/A	-1	0.051612	0.0188373113872522	0.103224	1	0.2	1	11214.8	5981.39280238393	TRUE	0.896776	1	-0.447980994284787	9.45620518213884	0.2
105	a billionaire	a congressman	Terrorist1	1	24	1	Riverbank	personal	is	kill	is	kill	personally	d	No	9.6634521335517	N/A	-1	0.603596153846154	0.0466995107666484	0.792807692307692	1	0.8	0	11214.8	5981.39280238393	TRUE	0.207192307692308	0	0.496754449139891	9.16669768441181	0.8
105	an astronaut	a judge	Terrorist1	1	1	1	Marine	personal	is	kill	is	kill	personally	k	Yes	9.9311513565186	N/A	-1	0.460862903225806	0.0435424451166074	0.921725806451613	1	1	1	11214.8	5981.39280238393	TRUE	0.078274193548387	1	0.461571643021244	9.46957971349736	1
105	a police officer	a college student	Terrorist1	1	28	1	Missile	personal	is	kill	is	kill	personally	d	No	8.61050136854989	N/A	-1	0.502531496062992	0.0422807672059856	0.994937007874016	-1	1	1	11214.8	5981.39280238393	FALSE	-0.00506299212598404	1	-0.504518924159205	9.11502029270909	1
105	a rapist	a terrorist	Terrorist1	1	29	1	Tsunami	personal	is	kill	is	kill	personally	k	Yes	9.1838937219612	N/A	-1	0.46352380952381	0.0383955496686703	0.927047619047619	-1	1	0	11214.8	5981.39280238393	FALSE	-0.072952380952381	0	0.0817471922306918	9.10214652973051	1
105	a rapist	a pedophile	Terrorist1	1	32	1	Malfunctioning Crane	personal	is	kill	is	kill	personally	d	No	9.56577454647878	N/A	-1	0.486515384615385	0.0358499595299147	0.973030769230769	1	1	0	11214.8	5981.39280238393	TRUE	0.026969230769231	0	0.502140313424032	9.06363423305475	1
105	a celebrity	a mentor	Terrorist1	1	27	1	Nuclear Plant	personal	is	kill	is	kill	personally	d	No	8.87919392811032	N/A	-1	0.371208695652174	0.0462679710878815	0.742417391304348	-1	0.8	1	11214.8	5981.39280238393	FALSE	-0.257582608695652	1	-0.248718335784918	9.12791226389524	0.8
105	a congressman	a billionaire	Terrorist1	1	26	1	Safari	personal	is	kill	is	kill	personally	k	Yes	8.54071438645758	N/A	-1	0.603596153846154	0.0466995107666484	0.792807692307692	-1	0.8	0	11214.8	5981.39280238393	FALSE	-0.207192307692308	0	-0.600108082584416	9.140822469042	0.8
105	a life-saving antidote	a celebrity	Terrorist1	1	19	1	Nuclear Plant	personal	is	destroy	is	kill	personally	k	Yes	8.84029066908897	N/A	-1	0.251382608695652	0.0387220706578808	0.502765217391304	1	0.6	1	11214.8	5981.39280238393	TRUE	0.497234782608696	1	-0.39141595779706	9.23170662688603	0.6
105	a police officer	an orphan	Terrorist1	1	18	1	Malfunctioning Crane	personal	is	kill	is	kill	personally	d	No	8.43489794868941	N/A	-1	0.434078125	0.042666180078063	0.86815625	-1	0.9	1	11214.8	5981.39280238393	FALSE	-0.13184375	1	-0.809865686520341	9.24476363520975	0.9
105	a homeless adult	a police officer	Terrorist1	1	8	1	Tsunami	personal	is	kill	is	kill	personally	k	Yes	8.89453313579855	N/A	-1	0.398463503649635	0.0415829069492661	0.79692700729927	-1	0.8	0	11214.8	5981.39280238393	FALSE	-0.20307299270073	0	-0.481820610693781	9.37635374649233	0.8
105	an elderly person	a celebrity	Terrorist1	1	5	1	Riverbank	personal	is	kill	is	kill	personally	k	Yes	9.19309247856663	N/A	-1	0.329113636363636	0.0420149553788142	0.658227272727273	1	0.7	1	11214.8	5981.39280238393	TRUE	0.341772727272727	1	-0.223102341377766	9.4161948199444	0.7
105	a mentor	a police officer	Terrorist1	1	36	1	Space ship	personal	is	kill	is	kill	personally	k	Yes	8.7371316117815	N/A	-1	0.500160305343511	0.0417484464604164	0.999679389312977	1	1	1	11214.8	5981.39280238393	TRUE	0.000320610687023049	1	-0.275406251278612	9.01253786306011	1
105	an adult	a congressman	Terrorist1	1	34	1	Space Cargo	personal	is	kill	is	kill	personally	k	Yes	8.50734485536142	N/A	-1	0.346709090909091	0.045252948157222	0.693418181818182	1	0.7	1	11214.8	5981.39280238393	TRUE	0.306581818181818	1	-0.530705083775544	9.03804993913697	0.7
105	an astronaut	a life-saving antidote	Terrorist1	1	40	1	Marine	personal	is	kill	is	destroy	personally	d	No	8.93918760147561	N/A	-1	0.300345238095238	0.0409364299350954	0.600690476190476	-1	0.7	1	11214.8	5981.39280238393	FALSE	-0.399309523809524	1	-0.022541948119887	8.9617295495955	0.7
105	a congressman	a thief	Terrorist1	1	15	1	Riverbank	personal	is	kill	is	kill	personally	k	Yes	9.43667881418691	N/A	-1	0.753238738738739	0.0390663538450212	0.493522522522523	1	0.5	1	11214.8	5981.39280238393	TRUE	0.506477477477477	1	0.152633245189721	9.28404556899719	0.5
105	a rabid possum	a homeless adult	Terrorist1	1	22	1	Missile	personal	is	kill	is	kill	personally	d	No	9.53712295804988	N/A	-1	0.946662878787879	0.017746682826375	0.106674242424242	-1	0.2	1	11214.8	5981.39280238393	FALSE	-0.893325757575758	1	0.344476812477446	9.19264614557243	0.2
105	a congressman	an adult	Terrorist1	1	38	1	Safari	personal	is	kill	is	kill	personally	k	Yes	9.33246950520925	N/A	-1	0.346709090909091	0.045252948157222	0.693418181818182	-1	0.7	0	11214.8	5981.39280238393	FALSE	-0.306581818181818	0	0.345371704237341	8.98709780097191	0.7
105	a rabid possum	a life-saving antidote	Terrorist1	1	35	1	Missile	personal	is	kill	is	destroy	personally	d	No	8.98029807897082	N/A	-1	0.988318897637795	0.00894756052211203	0.0233622047244093	-1	0.1	1	11214.8	5981.39280238393	FALSE	-0.976637795275591	1	-0.0449868076518776	9.02528488662269	0.1
105	a police officer	an elderly person	Terrorist1	1	37	1	Tsunami	personal	is	kill	is	kill	personally	d	No	8.60465446718623	N/A	-1	0.44434126984127	0.0432674742653806	0.88868253968254	-1	0.9	1	11214.8	5981.39280238393	FALSE	-0.11131746031746	1	-0.395154375799468	8.9998088429857	0.9
105	a police officer	an adult	Terrorist1	1	21	1	Safari	personal	is	kill	is	kill	personally	d	No	9.57115672841547	N/A	-1	0.5186171875	0.0415755171778906	0.962765625	1	1	0	11214.8	5981.39280238393	TRUE	0.037234375	0	0.365508820320581	9.20564790809488	1
105	a billionaire	a police officer	Terrorist1	1	39	1	Lumberjack	personal	is	kill	is	kill	personally	d	No	9.35599794439855	N/A	-1	0.444012396694215	0.0444662266334452	0.88802479338843	-1	0.9	1	11214.8	5981.39280238393	FALSE	-0.11197520661157	1	0.381593232771445	8.9744047116271	0.9
105	a gang member	a thief	Terrorist1	1	14	1	Nuclear Plant	personal	is	kill	is	kill	personally	d	No	9.29136721061856	N/A	-1	0.531546218487395	0.0426380366568949	0.93690756302521	1	1	0	11214.8	5981.39280238393	TRUE	0.0630924369747899	0	-0.00580939310184725	9.2971766037204	1
105	a congressman	an astronaut	Terrorist1	1	33	1	Space ship	personal	is	kill	is	kill	personally	d	No	9.61300155275161	N/A	-1	0.36735652173913	0.0439582539881778	0.734713043478261	-1	0.8	1	11214.8	5981.39280238393	FALSE	-0.265286956521739	1	0.56216850664916	9.05083304610245	0.8
105	a judge	an elderly person	Terrorist1	1	9	1	Space ship	personal	is	kill	is	kill	personally	d	No	8.8532367647459	N/A	-1	0.36324358974359	0.043010286968003	0.726487179487179	-1	0.8	1	11214.8	5981.39280238393	FALSE	-0.273512820512821	1	-0.509874119760459	9.36311088450636	0.8
105	a cockroach	a smartphone	Terrorist1	1	25	1	Space Cargo	personal	is	kill	is	destroy	personally	k	Yes	10.2971499485251	N/A	-1	0.143127118644068	0.0314101871618447	0.286254237288136	-1	0.3	0	11214.8	5981.39280238393	FALSE	-0.713745762711864	0	1.14339901458627	9.15375093393887	0.3
105	a pedophile	a cockroach	Terrorist1	1	4	1	Space Cargo	personal	is	kill	is	kill	personally	d	No	9.97478443441816	N/A	-1	0.391896694214876	0.040075643960542	0.783793388429752	-1	0.8	1	11214.8	5981.39280238393	FALSE	-0.216206611570248	1	0.545271672395353	9.42951276202281	0.8
105	a judge	an orphan	Terrorist1	1	12	1	Lumberjack	personal	is	kill	is	kill	personally	d	No	9.21880445038831	N/A	-1	0.34886974789916	0.0414340435398385	0.697739495798319	-1	0.7	1	11214.8	5981.39280238393	FALSE	-0.302260504201681	1	-0.104689965297826	9.32349441568614	0.7
105	a celebrity	a thief	Terrorist1	1	7	1	Marine	personal	is	kill	is	kill	personally	d	No	9.87142912884224	N/A	-1	0.788606194690265	0.0370892112917567	0.422787610619469	1	0.5	0	11214.8	5981.39280238393	TRUE	0.577212389380531	0	0.48181379011543	9.38961533872681	0.5
105	a cockroach	a homeless adult	Terrorist1	1	30	1	Malfunctioning Crane	personal	is	kill	is	kill	personally	d	No	8.73165920153676	N/A	-1	0.949672	0.017582080239424	0.100656	-1	0.2	1	11214.8	5981.39280238393	FALSE	-0.899344	1	-0.357631747706028	9.08929094924279	0.2
106	a gang member	a celebrity	Terrorist1	1	4	1	Marine	personal	is	kill	is	kill	personally	k	No	8.99081526618468	N/A	-1	0.763133928571429	0.0383290453791085	0.473732142857143	-1	0.5	1	6907.325	4409.7606446324	FALSE	-0.526267857142857	1	-0.0908124220731246	9.08162768825781	0.5
106	a soldier	a billionaire	Terrorist1	1	17	1	Malfunctioning Crane	personal	is	kill	is	kill	personally	d	Yes	8.28273588020175	N/A	-1	0.360632743362832	0.043759651899936	0.721265486725664	1	0.8	1	6907.325	4409.7606446324	TRUE	0.278734513274336	1	-0.313234674100434	8.59597055430219	0.8
106	a life-saving antidote	a police officer	Terrorist1	1	14	1	Space Cargo	personal	is	destroy	is	kill	personally	k	No	8.18200013629341	N/A	-1	0.354240458015267	0.0402131947577122	0.708480916030534	1	0.8	0	6907.325	4409.7606446324	TRUE	0.291519083969466	0	-0.421792587778461	8.60379272407187	0.8
106	a cockroach	an elderly person	Terrorist1	1	25	1	Space Cargo	personal	is	kill	is	kill	personally	k	No	8.28828304520769	N/A	-1	0.975282608695652	0.0137406182207404	0.0494347826086956	-1	0.1	1	6907.325	4409.7606446324	FALSE	-0.950565217391304	1	-0.304103937633094	8.59238698284078	0.1
106	an adult	a judge	Terrorist1	1	12	1	Riverbank	personal	is	kill	is	kill	personally	k	No	9.24261393252648	N/A	-1	0.433260504201681	0.0436336776447661	0.866521008403361	1	0.9	0	6907.325	4409.7606446324	TRUE	0.133478991596639	0	0.625905800992095	8.61670813153438	0.9
106	a convict	a rapist	Terrorist1	1	2	1	Lumberjack	personal	is	kill	is	kill	personally	d	Yes	10.1530782738652	N/A	-1	0.746914814814815	0.0346036548261975	0.50617037037037	1	0.6	1	6907.325	4409.7606446324	TRUE	0.49382962962963	1	0.52627019785842	9.62680807600677	0.6
106	an addict	a thief	Terrorist1	1	28	1	Nuclear Plant	personal	is	kill	is	kill	personally	d	Yes	8.88225288488936	N/A	-1	0.316363247863248	0.0415376335681335	0.632726495726496	1	0.7	1	6907.325	4409.7606446324	TRUE	0.367273504273504	1	0.289993355592031	8.59225952929733	0.7
106	a terrorist	an elderly person	Terrorist1	1	1	1	Nuclear Plant	personal	is	kill	is	kill	personally	k	No	9.95370526869675	N/A	-1	0.0447393162393162	0.0181747701046384	0.0894786324786325	-1	0.1	1	6907.325	4409.7606446324	FALSE	-0.910521367521367	1	-0.142742339046677	10.0964476077434	0.1
106	an addict	a gang member	Terrorist1	1	20	1	Lumberjack	personal	is	kill	is	kill	personally	d	Yes	8.92665032079394	N/A	-1	0.348239316239316	0.0432900858194097	0.696478632478633	1	0.7	1	6907.325	4409.7606446324	TRUE	0.303521367521367	1	0.333224824021936	8.593425496772	0.7
106	a rabid possum	a congressman	Terrorist1	1	13	1	Tsunami	personal	is	kill	is	kill	personally	k	No	8.20631072579402	N/A	-1	0.8705	0.0302090858370011	0.259	-1	0.3	1	6907.325	4409.7606446324	FALSE	-0.741	1	-0.402745152691979	8.609055878486	0.3
106	a convict	a thief	Terrorist1	1	30	1	Space Cargo	personal	is	kill	is	kill	personally	d	Yes	9.28535507578163	N/A	-1	0.586798449612403	0.0411776111711639	0.826403100775194	1	0.9	1	6907.325	4409.7606446324	TRUE	0.173596899224806	1	0.693127936915729	8.5922271388659	0.9
106	an addict	a convict	Terrorist1	1	34	1	Safari	personal	is	kill	is	kill	personally	d	Yes	8.4728232436803	N/A	-1	0.403472222222222	0.0428472138999983	0.806944444444444	1	0.9	1	6907.325	4409.7606446324	TRUE	0.193055555555556	1	-0.119381324232624	8.59220456791292	0.9
106	a thief	an elderly person	Terrorist1	1	40	1	Missile	personal	is	kill	is	kill	personally	k	No	8.19395302356374	N/A	-1	0.101871794871795	0.0265364707107693	0.20374358974359	-1	0.3	1	6907.325	4409.7606446324	FALSE	-0.79625641025641	1	-0.398245726018553	8.59219874958229	0.3
106	a thief	a gang member	Terrorist1	1	38	1	Space ship	personal	is	kill	is	kill	personally	d	Yes	9.09996731449481	N/A	-1	0.531546218487395	0.0426380366568949	0.93690756302521	-1	1	0	6907.325	4409.7606446324	FALSE	-0.0630924369747899	0	0.5077677975782	8.59219951691661	1
106	a mentor	an adult	Terrorist1	1	32	1	Safari	personal	is	kill	is	kill	personally	d	Yes	8.8963143241848	N/A	-1	0.517301652892562	0.0447574930792803	0.965396694214876	1	1	1	6907.325	4409.7606446324	TRUE	0.034603305785124	1	0.304102507842902	8.5922118163419	1
106	a nun	a pedophile	Terrorist1	1	3	1	Malfunctioning Crane	personal	is	kill	is	kill	personally	d	Yes	8.88391747120797	N/A	-1	0.949342519685039	0.0189281354243548	0.101314960629921	1	0.2	1	6907.325	4409.7606446324	TRUE	0.898685039370079	1	-0.419876538368575	9.30379400957655	0.2
106	a nun	a celebrity	Terrorist1	1	39	1	Riverbank	personal	is	kill	is	kill	personally	k	No	8.94819608331224	N/A	-1	0.458625	0.0446234943674416	0.91725	1	1	0	6907.325	4409.7606446324	TRUE	0.08275	0	0.355997021033733	8.59219906227851	1
106	a smartphone	an astronaut	Terrorist1	1	11	1	Space Cargo	personal	is	destroy	is	kill	personally	k	No	8.29354951506035	N/A	-1	0.82174	0.0324294938608679	0.35652	-1	0.4	1	6907.325	4409.7606446324	FALSE	-0.64348	1	-0.334284449407848	8.62783396446819	0.4
106	a cockroach	a smartphone	Terrorist1	1	6	1	Missile	personal	is	kill	is	destroy	personally	k	No	8.59396903021829	N/A	-1	0.143127118644068	0.0314101871618447	0.286254237288136	-1	0.3	1	6907.325	4409.7606446324	FALSE	-0.713745762711864	1	-0.229757197416262	8.82372622763455	0.3
106	a judge	a soldier	Terrorist1	1	26	1	Nuclear Plant	personal	is	kill	is	kill	personally	k	No	8.31434234336979	N/A	-1	0.324652892561983	0.0428261590203817	0.649305785123967	-1	0.7	1	6907.325	4409.7606446324	FALSE	-0.350694214876033	1	-0.277985656373287	8.59232799974308	0.7
106	a gang member	an assassin	Terrorist1	1	33	1	Lumberjack	personal	is	kill	is	kill	personally	d	Yes	8.44634145044429	N/A	-1	0.586697580645161	0.041598449334662	0.826604838709677	1	0.9	1	6907.325	4409.7606446324	TRUE	0.173395161290323	1	-0.145866071274085	8.59220752171837	0.9
106	a gang member	an adult with a deadly contagious disease	Terrorist1	1	37	1	Space ship	personal	is	kill	is	kill	personally	k	No	8.64153246567185	N/A	-1	0.365081395348837	0.0401404770615099	0.730162790697674	-1	0.8	1	6907.325	4409.7606446324	FALSE	-0.269837209302326	1	0.0493322877436935	8.59220017792815	0.8
106	a rabid possum	a judge	Terrorist1	1	15	1	Space ship	personal	is	kill	is	kill	personally	k	No	7.91790058632792	N/A	-1	0.966270161290323	0.0148841129102173	0.0674596774193548	-1	0.1	1	6907.325	4409.7606446324	FALSE	-0.932540322580645	1	-0.682272185004297	8.60017277133221	0.1
106	a cockroach	an assassin	Terrorist1	1	16	1	Missile	personal	is	kill	is	kill	personally	k	No	8.61938870373091	N/A	-1	0.569426229508197	0.04095824548846	0.861147540983606	-1	0.9	1	6907.325	4409.7606446324	FALSE	-0.138852459016394	1	0.0217057050343072	8.5976829986966	0.9
106	a police officer	an adult	Terrorist1	1	8	1	Lumberjack	personal	is	kill	is	kill	personally	d	Yes	8.94689552388845	N/A	-1	0.5186171875	0.0415755171778906	0.962765625	1	1	1	6907.325	4409.7606446324	TRUE	0.037234375	1	0.245171416811173	8.70172410707727	1
106	a police officer	a soldier	Terrorist1	1	36	1	Tsunami	personal	is	kill	is	kill	personally	k	No	8.71653573254449	N/A	-1	0.403246153846154	0.0419687000750222	0.806492307692308	-1	0.9	1	6907.325	4409.7606446324	FALSE	-0.193507692307692	1	0.124334593552465	8.59220113899203	0.9
106	an orphan	a police officer	Terrorist1	1	19	1	Safari	personal	is	kill	is	kill	personally	d	Yes	8.45233461906774	N/A	-1	0.434078125	0.042666180078063	0.86815625	1	0.9	1	6907.325	4409.7606446324	TRUE	0.13184375	1	-0.141648046575476	8.59398266564322	0.9
106	a cockroach	an astronaut	Terrorist1	1	27	1	Riverbank	personal	is	kill	is	kill	personally	k	No	8.06369263426952	N/A	-1	0.975553719008264	0.0127380324047799	0.048892561983471	-1	0.1	1	6907.325	4409.7606446324	FALSE	-0.951107438016529	1	-0.528594797401768	8.59228743167128	0.1
106	a college student	a nun	Terrorist1	1	29	1	Marine	personal	is	kill	is	kill	personally	d	Yes	8.90150275745161	N/A	-1	0.606892561983471	0.0434389872864491	0.786214876033058	1	0.8	1	6907.325	4409.7606446324	TRUE	0.213785123966942	1	0.309262419169226	8.59224033828238	0.8
106	a college student	a soldier	Terrorist1	1	35	1	Riverbank	personal	is	kill	is	kill	personally	k	No	8.95635094049087	N/A	-1	0.402823529411765	0.0440041154844106	0.805647058823529	-1	0.9	1	6907.325	4409.7606446324	FALSE	-0.194352941176471	1	0.36414840418016	8.59220253631071	0.9
106	an assassin	a life-saving antidote	Terrorist1	1	23	1	Safari	personal	is	kill	is	destroy	personally	d	Yes	8.87276752991094	N/A	-1	0.060003937007874	0.0208791535882275	0.120007874015748	-1	0.2	0	6907.325	4409.7606446324	FALSE	-0.879992125984252	0	0.280170104891743	8.59259742501919	0.2
106	a life-saving antidote	a soldier	Terrorist1	1	21	1	Tsunami	personal	is	destroy	is	kill	personally	k	No	8.20521842639541	N/A	-1	0.445065040650407	0.0429333250180719	0.890130081300813	1	0.9	0	6907.325	4409.7606446324	TRUE	0.109869918699187	0	-0.387823854376622	8.59304228077203	0.9
106	a life-saving antidote	a police officer	Terrorist1	1	10	1	Missile	personal	is	destroy	is	kill	personally	k	No	9.00035980718825	N/A	-1	0.354240458015267	0.0402131947577122	0.708480916030534	1	0.8	0	6907.325	4409.7606446324	TRUE	0.291519083969466	0	0.356349671115648	8.64401013607261	0.8
106	a college student	a billionaire	Terrorist1	1	9	1	Nuclear Plant	personal	is	kill	is	kill	personally	d	Yes	9.14878406627708	N/A	-1	0.432840909090909	0.0458532822660379	0.865681818181818	1	0.9	1	6907.325	4409.7606446324	TRUE	0.134318181818182	1	0.48125492454151	8.66752914173557	0.9
106	a billionaire	a smartphone	Terrorist1	1	31	1	Marine	personal	is	kill	is	destroy	personally	d	Yes	8.06526520889773	N/A	-1	0.751703539823009	0.0405160004946282	0.496592920353982	1	0.5	1	6907.325	4409.7606446324	TRUE	0.503407079646018	1	-0.526952851522028	8.59221806041976	0.5
107	a congressman	a homeless adult	Terrorist1	1	19	1	Lumberjack	personal	is	kill	is	kill	personally	d	No	10.6937614438268	N/A	-1	0.418126050420168	0.0429259165970178	0.836252100840336	-1	0.9	1	7416.35897435897	7558.41009976088	FALSE	-0.163747899159664	1	2.04007540809466	8.65368603573214	0.9
107	a nun	an adult	Terrorist1	1	16	1	Marine	personal	is	kill	is	kill	personally	k	Yes	9.12945564323572	N/A	-1	0.418188524590164	0.0416680398258753	0.836377049180328	-1	0.9	0	7416.35897435897	7558.41009976088	FALSE	-0.163622950819672	0	0.452152853489293	8.67730278974643	0.9
107	a convict	an astronaut	Terrorist1	1	31	1	Riverbank	personal	is	kill	is	kill	personally	d	No	8.08733292647335	N/A	-1	0.19118045112782	0.0338286660767724	0.382360902255639	-1	0.4	1	7416.35897435897	7558.41009976088	FALSE	-0.617639097744361	1	-0.471886093201629	8.55921901967498	0.4
107	a pedophile	a cockroach	Terrorist1	1	38	1	Space Cargo	personal	is	kill	is	kill	personally	k	Yes	8.67760991282214	N/A	-1	0.391896694214876	0.040075643960542	0.783793388429752	-1	0.8	0	7416.35897435897	7558.41009976088	FALSE	-0.216206611570248	0	0.173496652513835	8.50411326030831	0.8
107	an astronaut	an assassin	Terrorist1	1	27	1	Missile	personal	is	kill	is	kill	personally	k	Yes	8.48342956126343	N/A	-1	0.1018046875	0.0257081911887956	0.203609375	1	0.3	1	7416.35897435897	7558.41009976088	TRUE	0.796390625	1	-0.107278463763938	8.59070802502737	0.3
107	a pedophile	a homeless adult	Terrorist1	1	37	1	Lumberjack	personal	is	kill	is	kill	personally	d	No	7.86825426552061	N/A	-1	0.935996212121212	0.0191870359218625	0.128007575757576	-1	0.2	1	7416.35897435897	7558.41009976088	FALSE	-0.871992424242424	1	-0.64373124612579	8.5119855116464	0.2
107	a college student	a smartphone	Terrorist1	1	30	1	Missile	personal	is	kill	is	destroy	personally	k	Yes	7.72885582385254	N/A	-1	0.846210084033613	0.0324644197733429	0.307579831932773	1	0.4	1	7416.35897435897	7558.41009976088	TRUE	0.692420168067227	1	-0.838235447160535	8.56709127101308	0.4
107	a mentor	a cockroach	Terrorist1	1	22	1	Riverbank	personal	is	kill	is	kill	personally	k	Yes	9.87822102528824	N/A	-1	0.986491666666667	0.00949289447961774	0.0270166666666667	1	0.1	1	7416.35897435897	7558.41009976088	TRUE	0.972983333333333	1	1.24815174357039	8.63006928171785	0.1
107	a judge	a rapist	Terrorist1	1	34	1	Riverbank	personal	is	kill	is	kill	personally	k	Yes	8.29654652030061	N/A	-1	0.937186507936508	0.0216142114701964	0.125626984126984	1	0.2	1	7416.35897435897	7558.41009976088	TRUE	0.874373015873016	1	-0.239055745360078	8.53560226566069	0.2
107	a life-saving antidote	a rapist	Terrorist1	1	20	1	Tsunami	personal	is	destroy	is	kill	personally	k	Yes	7.52240023138712	N/A	-1	0.0341589147286822	0.0151615959229568	0.0683178294573643	1	0.1	1	7416.35897435897	7558.41009976088	TRUE	0.931682170542636	1	-1.12341355300692	8.64581378439404	0.1
107	a pedophile	a billionaire	Terrorist1	1	23	1	Safari	personal	is	kill	is	kill	personally	d	No	8.7516327024723	N/A	-1	0.925719827586207	0.022398749392254	0.148560344827586	-1	0.2	1	7416.35897435897	7558.41009976088	FALSE	-0.851439655172414	1	0.129435672092546	8.62219703037975	0.2
107	an addict	a thief	Terrorist1	1	7	1	Space Cargo	personal	is	kill	is	kill	personally	k	Yes	8.80941494391005	N/A	-1	0.316363247863248	0.0415376335681335	0.632726495726496	1	0.7	1	7416.35897435897	7558.41009976088	TRUE	0.367273504273504	1	0.0612618921207577	8.74815305178929	0.7
107	a rabid possum	an elderly person	Terrorist1	1	33	1	Space ship	personal	is	kill	is	kill	personally	d	No	8.52516136106541	N/A	-1	0.973573770491803	0.0135916706376055	0.0528524590163935	-1	0.1	1	7416.35897435897	7558.41009976088	FALSE	-0.947147540983607	1	-0.0183131559333738	8.54347451699879	0.1
107	a terrorist	an adult with a deadly contagious disease	Terrorist1	1	28	1	Tsunami	personal	is	kill	is	kill	personally	k	Yes	9.42108740295384	N/A	-1	0.221872093023256	0.0329352822344634	0.443744186046512	-1	0.5	0	7416.35897435897	7558.41009976088	FALSE	-0.556255813953488	0	0.838251629264571	8.58283577368927	0.5
107	a rapist	a college student	Terrorist1	1	3	1	Nuclear Plant	personal	is	kill	is	kill	personally	d	No	8.7465573545435	N/A	-1	0.955165322580645	0.0184868627503233	0.0896693548387097	-1	0.1	1	7416.35897435897	7558.41009976088	FALSE	-0.91033064516129	1	-0.0330847025981758	8.77964205714168	0.1
107	a rabid possum	a smartphone	Terrorist1	1	6	1	Safari	personal	is	kill	is	destroy	personally	k	Yes	8.38389034410182	N/A	-1	0.177212	0.0332371443382816	0.354424	-1	0.4	0	7416.35897435897	7558.41009976088	FALSE	-0.645576	0	-0.372134959025573	8.75602530312739	0.4
107	a soldier	a cockroach	Terrorist1	1	12	1	Space ship	personal	is	kill	is	kill	personally	k	Yes	8.37793112408273	N/A	-1	0.984915254237288	0.0102838645134772	0.0301694915254238	1	0.1	1	7416.35897435897	7558.41009976088	TRUE	0.969830508474576	1	-0.330860671016081	8.70879179509881	0.1
107	a rabid possum	a rapist	Terrorist1	1	40	1	Malfunctioning Crane	personal	is	kill	is	kill	personally	d	No	8.33639048059155	N/A	-1	0.375400763358779	0.0387862590238971	0.750801526717557	1	0.8	0	7416.35897435897	7558.41009976088	TRUE	0.249198473282443	0	-0.151978277040563	8.48836875763211	0.8
107	an orphan	a rabid possum	Terrorist1	1	8	1	Safari	personal	is	kill	is	kill	personally	k	Yes	8.49678638163858	N/A	-1	0.987	0.00911052007174357	0.026	1	0.1	1	7416.35897435897	7558.41009976088	TRUE	0.974	1	-0.243494418812622	8.7402808004512	0.1
107	an adult	a homeless adult	Terrorist1	1	9	1	Marine	personal	is	kill	is	kill	personally	k	Yes	8.53168763756669	N/A	-1	0.414681102362205	0.0430421897230041	0.829362204724409	1	0.9	1	7416.35897435897	7558.41009976088	TRUE	0.170637795275591	1	-0.200720911546409	8.7324085491131	0.9
107	a rapist	a mentor	Terrorist1	1	11	1	Marine	personal	is	kill	is	kill	personally	d	No	8.05737748855799	N/A	-1	0.955375968992248	0.0173995969362512	0.0892480620155038	-1	0.1	1	7416.35897435897	7558.41009976088	FALSE	-0.910751937984496	1	-0.659286557878916	8.71666404643691	0.1
107	an assassin	a college student	Terrorist1	1	32	1	Nuclear Plant	personal	is	kill	is	kill	personally	d	No	8.20248244657654	N/A	-1	0.914438524590164	0.0238310712948758	0.171122950819672	-1	0.2	1	7416.35897435897	7558.41009976088	FALSE	-0.828877049180328	1	-0.348864321760347	8.55134676833688	0.2
107	a homeless adult	a thief	Terrorist1	1	26	1	Space ship	personal	is	kill	is	kill	personally	k	Yes	8.06463647577422	N/A	-1	0.8327578125	0.0308603188685306	0.334484375	1	0.4	1	7416.35897435897	7558.41009976088	TRUE	0.665515625	1	-0.53394380059124	8.59858027636546	0.4
107	an elderly person	a smartphone	Terrorist1	1	13	1	Missile	personal	is	kill	is	destroy	personally	k	Yes	7.900636613018	N/A	-1	0.852177966101695	0.0317426686176899	0.29564406779661	1	0.3	1	7416.35897435897	7558.41009976088	TRUE	0.70435593220339	1	-0.800282930742711	8.70091954376072	0.3
107	a life-saving antidote	a terrorist	Terrorist1	1	35	1	Lumberjack	personal	is	destroy	is	kill	personally	k	Yes	8.87178596915065	N/A	-1	0.0272008196721311	0.0145106085142059	0.0544016393442623	1	0.1	1	7416.35897435897	7558.41009976088	TRUE	0.945598360655738	1	0.344055954828049	8.5277300143226	0.1
107	a gang member	a terrorist	Terrorist1	1	4	1	Space ship	personal	is	kill	is	kill	personally	k	Yes	8.94806610345893	N/A	-1	0.689663865546219	0.0385966813727044	0.620672268907563	1	0.7	1	7416.35897435897	7558.41009976088	TRUE	0.379327731092437	1	0.176296297655353	8.77176980580358	0.7
107	a cockroach	a smartphone	Terrorist1	1	21	1	Missile	personal	is	kill	is	destroy	personally	d	No	8.61323037961318	N/A	-1	0.143127118644068	0.0314101871618447	0.286254237288136	-1	0.3	1	7416.35897435897	7558.41009976088	FALSE	-0.713745762711864	1	-0.0247111534427642	8.63794153305594	0.3
107	a college student	an adult	Terrorist1	1	36	1	Safari	personal	is	kill	is	kill	personally	k	Yes	8.34117174717076	N/A	-1	0.522547008547009	0.0443517964182331	0.954905982905983	1	1	1	7416.35897435897	7558.41009976088	TRUE	0.0450940170940169	1	-0.178686015813737	8.5198577629845	1
107	an adult	a billionaire	Terrorist1	1	5	1	Marine	personal	is	kill	is	kill	personally	k	Yes	8.90679988358994	N/A	-1	0.455990990990991	0.0465151401263265	0.911981981981982	1	1	1	7416.35897435897	7558.41009976088	TRUE	0.088018018018018	1	0.142902329124459	8.76389755446549	1
107	an adult	a rapist	Terrorist1	1	14	1	Riverbank	personal	is	kill	is	kill	personally	k	Yes	8.02780284837031	N/A	-1	0.051612	0.0188373113872522	0.103224	1	0.2	1	7416.35897435897	7558.41009976088	TRUE	0.896776	1	-0.665244444052307	8.69304729242262	0.2
107	a homeless adult	a thief	Terrorist1	1	25	1	Lumberjack	personal	is	kill	is	kill	personally	k	Yes	8.33399124719497	N/A	-1	0.8327578125	0.0308603188685306	0.334484375	1	0.4	1	7416.35897435897	7558.41009976088	TRUE	0.665515625	1	-0.272461280508585	8.60645252770356	0.4
107	a rabid possum	an orphan	Terrorist1	1	2	1	Tsunami	personal	is	kill	is	kill	personally	d	No	8.46926265765869	N/A	-1	0.987	0.00911052007174357	0.026	-1	0.1	1	7416.35897435897	7558.41009976088	FALSE	-0.974	1	-0.318251650821088	8.78751430847977	0.1
107	an addict	a smartphone	Terrorist1	1	39	1	Malfunctioning Crane	personal	is	kill	is	destroy	personally	k	Yes	8.97322466309509	N/A	-1	0.557512711864407	0.0452002593125871	0.884974576271186	1	0.9	1	7416.35897435897	7558.41009976088	TRUE	0.115025423728814	1	0.476983654124879	8.49624100897021	0.9
107	a nun	an addict	Terrorist1	1	18	1	Malfunctioning Crane	personal	is	kill	is	kill	personally	k	Yes	9.94817407015853	N/A	-1	0.69385	0.0399394735874088	0.6123	1	0.7	1	7416.35897435897	7558.41009976088	TRUE	0.3877	1	1.2866157830883	8.66155828707023	0.7
107	a cockroach	a billionaire	Terrorist1	1	15	1	Nuclear Plant	personal	is	kill	is	kill	personally	d	No	9.89141497130186	N/A	-1	0.934636363636364	0.022333748386201	0.130727272727273	-1	0.2	1	7416.35897435897	7558.41009976088	FALSE	-0.869272727272727	1	1.20623993021734	8.68517504108452	0.2
108	a cockroach	a congressman	Terrorist1	1	32	1	Safari	personal	is	kill	is	kill	personally	k	No	8.33615081612066	N/A	-1	0.889087155963303	0.0294072322682076	0.221825688073394	-1	0.3	1	4624.525	1960.35267611305	FALSE	-0.778174311926606	1	0.0120521309803419	8.32409868514032	0.3
108	an astronaut	a gang member	Terrorist1	1	33	1	Safari	personal	is	kill	is	kill	personally	d	Yes	7.71690613529839	N/A	-1	0.146109756097561	0.0307347494719367	0.292219512195122	1	0.3	1	4624.525	1960.35267611305	TRUE	0.707780487804878	1	-0.607192549841824	8.32409868514021	0.3
108	a smartphone	a college student	Terrorist1	1	3	1	Nuclear Plant	personal	is	destroy	is	kill	personally	k	No	7.99395754757357	N/A	-1	0.846210084033613	0.0324644197733429	0.307579831932773	-1	0.4	1	4624.525	1960.35267611305	FALSE	-0.692420168067227	1	-0.360288076082021	8.35424562365559	0.4
108	a celebrity	an elderly person	Terrorist1	1	14	1	Nuclear Plant	personal	is	kill	is	kill	personally	d	Yes	8.2987883944492	N/A	-1	0.329113636363636	0.0420149553788142	0.658227272727273	-1	0.7	0	4624.525	1960.35267611305	FALSE	-0.341772727272727	0	-0.0253119753502276	8.32410036979943	0.7
108	an addict	a pedophile	Terrorist1	1	8	1	Space Cargo	personal	is	kill	is	kill	personally	d	Yes	8.11969625295725	N/A	-1	0.15049173553719	0.0299568238226622	0.30098347107438	1	0.4	1	4624.525	1960.35267611305	TRUE	0.69901652892562	1	-0.204754141286045	8.32445039424329	0.4
108	an addict	a gang member	Terrorist1	1	6	1	Malfunctioning Crane	personal	is	kill	is	kill	personally	d	Yes	8.66440557109662	N/A	-1	0.348239316239316	0.0432900858194097	0.696478632478633	1	0.7	1	4624.525	1960.35267611305	TRUE	0.303521367521367	1	0.338220438503226	8.3261851325934	0.7
108	a celebrity	a college student	Terrorist1	1	17	1	Malfunctioning Crane	personal	is	kill	is	kill	personally	k	No	8.3774712482411	N/A	-1	0.361747747747748	0.0447780270434917	0.723495495495496	-1	0.8	1	4624.525	1960.35267611305	FALSE	-0.276504504504504	1	0.0533724465069341	8.32409880173417	0.8
108	a life-saving antidote	a celebrity	Terrorist1	1	39	1	Space ship	personal	is	destroy	is	kill	personally	d	Yes	8.44912846050211	N/A	-1	0.251382608695652	0.0387220706578808	0.502765217391304	1	0.6	1	4624.525	1960.35267611305	TRUE	0.497234782608696	1	0.125029775361972	8.32409868514014	0.6
108	a convict	a gang member	Terrorist1	1	15	1	Missile	personal	is	kill	is	kill	personally	d	Yes	8.20056279700856	N/A	-1	0.55348828125	0.0408366708104029	0.8930234375	1	0.9	1	4624.525	1960.35267611305	TRUE	0.1069765625	1	-0.123536579803517	8.32409937681208	0.9
108	a rabid possum	an elderly person	Terrorist1	1	24	1	Safari	personal	is	kill	is	kill	personally	k	No	8.10621290261996	N/A	-1	0.973573770491803	0.0135916706376055	0.0528524590163935	-1	0.1	1	4624.525	1960.35267611305	FALSE	-0.947147540983607	1	-0.217885782749468	8.32409868536943	0.1
108	a cockroach	a nun	Terrorist1	1	18	1	Nuclear Plant	personal	is	kill	is	kill	personally	k	No	8.21797820315073	N/A	-1	0.9646125	0.0164736651070345	0.070775	-1	0.1	1	4624.525	1960.35267611305	FALSE	-0.929225	1	-0.10612052985951	8.32409873301024	0.1
108	an astronaut	a soldier	Terrorist1	1	34	1	Riverbank	personal	is	kill	is	kill	personally	k	No	8.67077227934454	N/A	-1	0.65444	0.0412889231534945	0.69112	-1	0.7	1	4624.525	1960.35267611305	FALSE	-0.30888	1	0.34667359420437	8.32409868514017	0.7
108	a celebrity	an orphan	Terrorist1	1	31	1	Lumberjack	personal	is	kill	is	kill	personally	k	No	8.72631895096224	N/A	-1	0.312214285714286	0.0426892506026397	0.624428571428571	-1	0.7	1	4624.525	1960.35267611305	FALSE	-0.375571428571429	1	0.402220265821656	8.32409868514059	0.7
108	a gang member	a congressman	Terrorist1	1	12	1	Marine	personal	is	kill	is	kill	personally	k	No	8.47824444127766	N/A	-1	0.724513513513514	0.0412069158809236	0.550972972972973	-1	0.6	1	4624.525	1960.35267611305	FALSE	-0.449027027027027	1	0.154135762216248	8.32410867906142	0.6
108	an astronaut	an adult	Terrorist1	1	2	1	Safari	personal	is	kill	is	kill	personally	k	No	8.88002911746844	N/A	-1	0.532536585365854	0.0435701185003703	0.934926829268293	-1	1	1	4624.525	1960.35267611305	FALSE	-0.065073170731707	1	0.48250354192513	8.39752557554331	1
108	an addict	a pedophile	Terrorist1	1	40	1	Lumberjack	personal	is	kill	is	kill	personally	d	Yes	7.64921631982063	N/A	-1	0.15049173553719	0.0299568238226622	0.30098347107438	1	0.4	1	4624.525	1960.35267611305	TRUE	0.69901652892562	1	-0.674882365319503	8.32409868514014	0.4
108	a college student	an astronaut	Terrorist1	1	27	1	Space Cargo	personal	is	kill	is	kill	personally	k	No	8.68676717538769	N/A	-1	0.558131147540984	0.0447336171236144	0.883737704918033	1	0.9	0	4624.525	1960.35267611305	TRUE	0.116262295081967	0	0.362668490231684	8.32409868515601	0.9
108	a cockroach	a nun	Terrorist1	1	9	1	Riverbank	personal	is	kill	is	kill	personally	k	No	8.40893960597598	N/A	-1	0.9646125	0.0164736651070345	0.070775	-1	0.1	1	4624.525	1960.35267611305	FALSE	-0.929225	1	0.0846965193413816	8.3242430866346	0.1
108	a life-saving antidote	a gang member	Terrorist1	1	38	1	Malfunctioning Crane	personal	is	destroy	is	kill	personally	d	Yes	8.13622555490846	N/A	-1	0.097827868852459	0.0270885167236823	0.195655737704918	1	0.2	1	4624.525	1960.35267611305	TRUE	0.804344262295082	1	-0.187873130231676	8.32409868514014	0.2
108	a mentor	a cockroach	Terrorist1	1	30	1	Missile	personal	is	kill	is	kill	personally	d	Yes	8.10198073185319	N/A	-1	0.986491666666667	0.00949289447961774	0.0270166666666667	1	0.1	1	4624.525	1960.35267611305	TRUE	0.972983333333333	1	-0.222117953288041	8.32409868514123	0.1
108	a billionaire	a judge	Terrorist1	1	1	1	Marine	personal	is	kill	is	kill	personally	k	No	8.3959291039232	N/A	-1	0.509799107142857	0.0458529020827892	0.980401785714286	1	1	0	4624.525	1960.35267611305	TRUE	0.019598214285714	0	-0.107010568056012	8.50293967197921	1
108	an orphan	a congressman	Terrorist1	1	19	1	Lumberjack	personal	is	kill	is	kill	personally	d	Yes	7.79234892411304	N/A	-1	0.275121621621622	0.0414256840995236	0.550243243243243	1	0.6	1	4624.525	1960.35267611305	TRUE	0.449756756756757	1	-0.531749780681167	8.3240987047942	0.6
108	a judge	a soldier	Terrorist1	1	29	1	Marine	personal	is	kill	is	kill	personally	k	No	8.36869318309779	N/A	-1	0.324652892561983	0.0428261590203817	0.649305785123967	-1	0.7	1	4624.525	1960.35267611305	FALSE	-0.350694214876033	1	0.0445944979549822	8.32409868514281	0.7
108	a celebrity	a rabid possum	Terrorist1	1	13	1	Space Cargo	personal	is	kill	is	kill	personally	d	Yes	8.2398574110186	N/A	-1	0.895029914529915	0.0283846099629995	0.209940170940171	1	0.3	1	4624.525	1960.35267611305	TRUE	0.790059829059829	1	-0.0842453773339784	8.32410278835258	0.3
108	a cockroach	a billionaire	Terrorist1	1	21	1	Marine	personal	is	kill	is	kill	personally	k	No	7.71154897962915	N/A	-1	0.934636363636364	0.022333748386201	0.130727272727273	-1	0.2	1	4624.525	1960.35267611305	FALSE	-0.869272727272727	1	-0.612549708824044	8.32409868845319	0.2
108	a pedophile	a terrorist	Terrorist1	1	20	1	Space Cargo	personal	is	kill	is	kill	personally	k	No	8.49617382419216	N/A	-1	0.44540243902439	0.0362670970792328	0.890804878048781	-1	0.9	1	4624.525	1960.35267611305	FALSE	-0.109195121951219	1	0.172075130982639	8.32409869320952	0.9
108	a rapist	a cockroach	Terrorist1	1	10	1	Tsunami	personal	is	kill	is	kill	personally	d	Yes	8.60776488960062	N/A	-1	0.411129032258065	0.0395470975159161	0.822258064516129	-1	0.9	0	4624.525	1960.35267611305	FALSE	-0.177741935483871	0	0.283606917420668	8.32415797217996	0.9
108	an adult with a deadly contagious disease	a mentor	Terrorist1	1	23	1	Space ship	personal	is	kill	is	kill	personally	k	No	8.1969879272589	N/A	-1	0.746314393939394	0.0351020393607799	0.507371212121212	-1	0.6	1	4624.525	1960.35267611305	FALSE	-0.492628787878788	1	-0.127110758439715	8.32409868569861	0.6
108	a cockroach	a police officer	Terrorist1	1	4	1	Tsunami	personal	is	kill	is	kill	personally	k	No	7.75747876658418	N/A	-1	0.969670634920635	0.0149312423818763	0.0606587301587302	-1	0.1	1	4624.525	1960.35267611305	FALSE	-0.93934126984127	1	-0.578997371786838	8.33647613837102	0.1
108	an adult	a celebrity	Terrorist1	1	35	1	Malfunctioning Crane	personal	is	kill	is	kill	personally	k	No	8.70267641154777	N/A	-1	0.386696428571429	0.0427592211259445	0.773392857142857	1	0.8	0	4624.525	1960.35267611305	TRUE	0.226607142857143	0	0.378577726407622	8.32409868514015	0.8
108	an addict	a pedophile	Terrorist1	1	7	1	Space ship	personal	is	kill	is	kill	personally	d	Yes	8.37839078853578	N/A	-1	0.15049173553719	0.0299568238226622	0.30098347107438	1	0.4	1	4624.525	1960.35267611305	TRUE	0.69901652892562	1	0.053435468956355	8.32495531957942	0.4
108	an adult with a deadly contagious disease	a college student	Terrorist1	1	36	1	Missile	personal	is	kill	is	kill	personally	k	No	8.10440130792161	N/A	-1	0.75182421875	0.0368129038711905	0.4963515625	-1	0.5	1	4624.525	1960.35267611305	FALSE	-0.5036484375	1	-0.219697377218528	8.32409868514014	0.5
