sn	Item1	Item2	cond	sess	trial	trial_type	title	typeOfScen	keybResp	keyDef	keybRT	rtBeep	rtDeadline	averageP	sdp	overlap	direct.xVy	overlapRound	correct	avgRT	sdRT	targetPresent	dirOverlap	correct01	res.RT	fit.RT	overlapRoundSN
1	3 pedophiles	53 judges	quantity	1	29	1	simplified	impersonal	d	No	7.69393732550927	N/A	-1	0.1267734375	0.0288535320703381	0.253546875	-1	0.3	1	3671.38333333333	1347.91392628056	FALSE	-0.746453125	1	-0.53480577903933	8.2287431045486	0.3
1	7 convicts	50 thieves	quantity	1	82	1	simplified	impersonal	d	No	8.43359416753992	N/A	-1	0.527162601626016	0.0439956876330651	0.945674796747968	1	1	0	3671.38333333333	1347.91392628056	TRUE	0.0543252032520321	0	0.33361794483818	8.09997622270174	1
1	an astronaut	3 pedophiles	quantity	1	15	1	simplified	impersonal	k	Yes	7.62217459481762	N/A	-1	0.912935483870968	0.0249047625624278	0.174129032258065	1	0.2	1	3671.38333333333	1347.91392628056	TRUE	0.825870967741935	1	-0.640582403049018	8.26275699786664	0.2
1	49 gang members	a congressman	quantity	1	27	1	simplified	impersonal	d	No	8.06996814905984	N/A	-1	0.714311926605505	0.0407411976151614	0.571376146788991	-1	0.6	1	3671.38333333333	1347.91392628056	FALSE	-0.428623853211009	1	-0.163634083105624	8.23360223216546	0.6
1	an assassin	a gang member	quantity	1	99	1	simplified	impersonal	k	Yes	8.36077327214494	N/A	-1	0.587891129032258	0.0430209288113874	0.824217741935484	-1	0.9	0	3671.38333333333	1347.91392628056	FALSE	-0.175782258064516	0	0.302099634186524	8.05867363795841	0.9
1	a terrorist	6 elderly people	quantity	1	103	1	simplified	impersonal	d	No	7.96797317966293	N/A	-1	0.0334512195121951	0.0161358639910392	0.0669024390243902	-1	0.1	1	3671.38333333333	1347.91392628056	FALSE	-0.93309756097561	1	-0.080982203061752	8.04895538272469	0.1
1	3 pedophiles	a college student	quantity	1	75	1	simplified	impersonal	d	No	8.27461194620955	N/A	-1	0.927576271186441	0.023205305479047	0.144847457627119	-1	0.2	1	3671.38333333333	1347.91392628056	FALSE	-0.855152542372881	1	0.157628776848789	8.11698316936076	0.2
1	50 addicts	a terrorist	quantity	1	100	1	simplified	impersonal	k	Yes	8.15248607578024	N/A	-1	0.185223577235772	0.0339672025242434	0.370447154471545	1	0.4	1	3671.38333333333	1347.91392628056	TRUE	0.629552845528455	1	0.0962420016302605	8.05624407414998	0.4
1	53 adults	9 adults	quantity	1	46	1	simplified	impersonal	k	Yes	8.65032450401942	N/A	-1	0.455072	0.0447387569381669	0.910144	1	1	1	3671.38333333333	1347.91392628056	TRUE	0.089856	1	0.462883984214148	8.18744051980527	1
1	7 convicts	9 rapists	quantity	1	25	1	simplified	impersonal	k	Yes	9.00993630763146	N/A	-1	0.295095833333333	0.03732410435428	0.590191666666667	1	0.6	1	3671.38333333333	1347.91392628056	TRUE	0.409808333333333	1	0.771474947849136	8.23846135978233	0.6
1	49 astronauts	4 homeless adults	quantity	1	23	1	simplified	impersonal	k	Yes	7.94129557090653	N/A	-1	0.441330508474576	0.0469753007989062	0.882661016949153	1	0.9	1	3671.38333333333	1347.91392628056	TRUE	0.117338983050847	1	-0.302024916492658	8.24332048739919	0.9
1	a celebrity	8 terrorists	quantity	1	114	1	simplified	impersonal	k	Yes	7.75833346749091	N/A	-1	0.881604347826087	0.0289899588564884	0.236791304347826	1	0.3	1	3671.38333333333	1347.91392628056	TRUE	0.763208695652174	1	-0.263896713341033	8.02223018083194	0.3
1	48 nuns	6 police officers	quantity	1	84	1	simplified	impersonal	k	Yes	8.04942705711069	N/A	-1	0.556710084033613	0.0459898463778781	0.886579831932773	-1	0.9	0	3671.38333333333	1347.91392628056	FALSE	-0.113420168067227	0	-0.045690037974186	8.09511709508488	0.9
1	an assassin	53 rapists	quantity	1	60	1	simplified	impersonal	k	Yes	8.12266802334641	N/A	-1	0.631438016528926	0.0396697006914454	0.737123966942149	1	0.8	1	3671.38333333333	1347.91392628056	TRUE	0.262876033057851	1	-0.0307586031408249	8.15342662648723	0.8
1	49 celebrities	51 convicts	quantity	1	106	1	simplified	impersonal	k	Yes	7.93200315236138	N/A	-1	0.69271186440678	0.0428821133654755	0.614576271186441	1	0.7	1	3671.38333333333	1347.91392628056	TRUE	0.385423728813559	1	-0.109663538938009	8.04166669129939	0.7
1	53 adults	48 nuns	quantity	1	31	1	simplified	impersonal	k	Yes	8.18116085802341	N/A	-1	0.607226890756303	0.0446487678777185	0.785546218487395	1	0.8	1	3671.38333333333	1347.91392628056	TRUE	0.214453781512605	1	-0.0427231189083308	8.22388397693174	0.8
1	49 celebrities	4 nuns	quantity	1	3	1	simplified	impersonal	d	No	8.50309426703674	N/A	-1	0.505046875	0.0439485792739461	0.98990625	-1	1	1	3671.38333333333	1347.91392628056	FALSE	-0.01009375	1	0.211182503468921	8.29191176356782	1
1	47 college students	47 pedophiles	quantity	1	45	1	simplified	impersonal	k	Yes	7.76937860951398	N/A	-1	0.0582773109243697	0.020583561079371	0.116554621848739	1	0.2	1	3671.38333333333	1347.91392628056	TRUE	0.883445378151261	1	-0.420491474099718	8.1898700836137	0.2
1	50 police officers	51 convicts	quantity	1	113	1	simplified	impersonal	k	Yes	7.89580837708318	N/A	-1	0.757235849056604	0.0410324531718382	0.485528301886792	1	0.5	1	3671.38333333333	1347.91392628056	TRUE	0.514471698113208	1	-0.128851367557191	8.02465974464037	0.5
1	50 addicts	53 rapists	quantity	1	80	1	simplified	impersonal	k	Yes	8.18757739559151	N/A	-1	0.181495833333333	0.0338405373799621	0.362991666666667	1	0.4	1	3671.38333333333	1347.91392628056	TRUE	0.637008333333333	1	0.0827420452729051	8.10483535031861	0.4
1	50 elderly people	a college student	quantity	1	4	1	simplified	impersonal	k	Yes	8.60849534982302	N/A	-1	0.445970833333333	0.0438428834712084	0.891941666666667	1	0.9	1	3671.38333333333	1347.91392628056	TRUE	0.108058333333333	1	0.31901315006364	8.28948219975938	0.9
1	53 judges	6 thieves	quantity	1	65	1	simplified	impersonal	d	No	8.56388591940822	N/A	-1	0.19990234375	0.0342025682433218	0.3998046875	1	0.4	0	3671.38333333333	1347.91392628056	TRUE	0.6001953125	0	0.422607111963144	8.14127880744508	0.4
1	52 terrorists	52 billionaires	quantity	1	98	1	simplified	impersonal	k	Yes	8.13856473726163	N/A	-1	0.156708	0.0303339229721921	0.313416	-1	0.4	0	3671.38333333333	1347.91392628056	FALSE	-0.686584	0	0.0774615354947876	8.06110320176684	0.4
1	a celebrity	9 rapists	quantity	1	17	1	simplified	impersonal	k	Yes	8.39976009452414	N/A	-1	0.8875	0.0276859366858303	0.225	1	0.3	1	3671.38333333333	1347.91392628056	TRUE	0.775	1	0.141862224274364	8.25789787024978	0.3
1	51 assassins	6 elderly people	quantity	1	90	1	simplified	impersonal	d	No	8.38389034410182	N/A	-1	0.841003937007874	0.0317499147035348	0.317992125984252	-1	0.4	1	3671.38333333333	1347.91392628056	FALSE	-0.682007874015748	1	0.303350631867522	8.08053971223429	0.4
1	a mentor	47 pedophiles	quantity	1	104	1	simplified	impersonal	k	Yes	7.91571319938212	N/A	-1	0.940073770491803	0.0209157623297119	0.119852459016393	1	0.2	1	3671.38333333333	1347.91392628056	TRUE	0.880147540983607	1	-0.130812619534139	8.04652581891625	0.2
1	53 judges	6 police officers	quantity	1	49	1	simplified	impersonal	k	Yes	8.38480400337049	N/A	-1	0.577365384615385	0.0434815445075275	0.845269230769231	-1	0.9	0	3671.38333333333	1347.91392628056	FALSE	-0.154730769230769	0	0.204652174990516	8.18015182837998	0.9
1	a rapist	6 addicts	quantity	1	108	1	simplified	impersonal	d	No	8.59692815943509	N/A	-1	0.16791015625	0.0308131076213973	0.3358203125	-1	0.4	1	3671.38333333333	1347.91392628056	FALSE	-0.6641796875	1	0.560120595752561	8.03680756368253	0.4
1	an orphan	a college student	quantity	1	87	1	simplified	impersonal	d	No	9.23366619727968	N/A	-1	0.565760683760684	0.0435501972670021	0.868478632478632	1	0.9	0	3671.38333333333	1347.91392628056	TRUE	0.131521367521368	0	1.14583779362009	8.08782840365959	0.9
1	an astronaut	a college student	quantity	1	71	1	simplified	impersonal	k	Yes	8.75431854025087	N/A	-1	0.555700819672131	0.0438532658906183	0.888598360655738	-1	0.9	0	3671.38333333333	1347.91392628056	FALSE	-0.111401639344262	0	0.627617115656378	8.12670142459449	0.9
1	3 college students	47 college students	quantity	1	119	1	simplified	impersonal	d	No	8.11132800328673	N/A	-1	0.37931746031746	0.0416591955634617	0.758634920634921	-1	0.8	1	3671.38333333333	1347.91392628056	FALSE	-0.241365079365079	1	0.101245641496947	8.01008236178979	0.8
1	an addict	a police officer	quantity	1	8	1	simplified	impersonal	d	No	8.32457884513685	N/A	-1	0.758603174603175	0.0388028265781828	0.482793650793651	-1	0.5	1	3671.38333333333	1347.91392628056	FALSE	-0.517206349206349	1	0.0448149006111915	8.27976394452566	0.5
1	48 homeless adults	6 police officers	quantity	1	105	1	simplified	impersonal	k	Yes	8.34711636103872	N/A	-1	0.530941666666667	0.0445160451466403	0.938116666666667	-1	1	0	3671.38333333333	1347.91392628056	FALSE	-0.061883333333333	0	0.303020105930896	8.04409625510782	1
1	5 orphans	48 nuns	quantity	1	64	1	simplified	impersonal	d	No	8.11312710422178	N/A	-1	0.5758125	0.0449191395802325	0.848375	1	0.9	0	3671.38333333333	1347.91392628056	TRUE	0.151625	0	-0.0305812670317263	8.14370837125351	0.9
1	51 assassins	7 assassins	quantity	1	50	1	simplified	impersonal	k	Yes	8.36590507720246	N/A	-1	0.434591666666667	0.0431232708811784	0.869183333333333	1	0.9	1	3671.38333333333	1347.91392628056	TRUE	0.130816666666667	1	0.18818281263091	8.17772226457155	0.9
1	51 assassins	49 orphans	quantity	1	18	1	simplified	impersonal	d	No	8.3513747067213	N/A	-1	0.862872	0.0307952587903392	0.274256	-1	0.3	1	3671.38333333333	1347.91392628056	FALSE	-0.725744	1	0.095906400279949	8.25546830644135	0.3
1	48 congressmen	53 judges	quantity	1	22	1	simplified	impersonal	d	No	8.61902749729751	N/A	-1	0.447793893129771	0.0424883459954162	0.895587786259542	-1	0.9	1	3671.38333333333	1347.91392628056	FALSE	-0.104412213740458	1	0.373277446089883	8.24575005120762	0.9
1	a rapist	5 astronauts	quantity	1	57	1	simplified	impersonal	d	No	7.93415523353632	N/A	-1	0.0548412698412698	0.0197579163400427	0.10968253968254	-1	0.2	1	3671.38333333333	1347.91392628056	FALSE	-0.89031746031746	1	-0.226560084376204	8.16071531791253	0.2
1	3 pedophiles	53 rapists	quantity	1	73	1	simplified	impersonal	k	Yes	8.36217546914963	N/A	-1	0.560637931034483	0.0389925932046312	0.878724137931034	1	0.9	1	3671.38333333333	1347.91392628056	TRUE	0.121275862068966	1	0.240333172172003	8.12184229697763	0.9
1	a soldier	48 congressmen	quantity	1	2	1	simplified	impersonal	d	No	8.35326149973387	N/A	-1	0.669270161290323	0.0418975719453623	0.661459677419355	1	0.7	0	3671.38333333333	1347.91392628056	TRUE	0.338540322580645	0	0.0589201723576256	8.29434132737625	0.7
1	an orphan	5 orphans	quantity	1	26	1	simplified	impersonal	d	No	8.66423293406555	N/A	-1	0.518094262295082	0.044317608635209	0.963811475409836	1	1	0	3671.38333333333	1347.91392628056	TRUE	0.036188524590164	0	0.428201138091655	8.2360317959739	1
1	4 congressmen	53 adults	quantity	1	33	1	simplified	impersonal	d	No	8.0805469658245	N/A	-1	0.260698473282443	0.0361849514165968	0.521396946564885	-1	0.6	1	3671.38333333333	1347.91392628056	FALSE	-0.478603053435115	1	-0.138477883490379	8.21902484931488	0.6
1	52 billionaires	47 college students	quantity	1	56	1	simplified	impersonal	d	No	7.80425138352811	N/A	-1	0.402443548387097	0.044151339674005	0.804887096774194	-1	0.9	1	3671.38333333333	1347.91392628056	FALSE	-0.195112903225806	1	-0.358893498192844	8.16314488172096	0.9
1	an assassin	a billionaire	quantity	1	70	1	simplified	impersonal	d	No	8.11342663994365	N/A	-1	0.853606837606838	0.0305612646646622	0.292786324786325	-1	0.3	1	3671.38333333333	1347.91392628056	FALSE	-0.707213675213675	1	-0.0157043484592663	8.12913098840292	0.3
1	50 thieves	3 pedophiles	quantity	1	109	1	simplified	impersonal	k	Yes	8.58110651715989	N/A	-1	0.356479508196721	0.0396055249335809	0.712959016393443	1	0.8	1	3671.38333333333	1347.91392628056	TRUE	0.287040983606557	1	0.546728517285791	8.0343779998741	0.8
1	9 rapists	5 astronauts	quantity	1	16	1	simplified	impersonal	d	No	7.86095636487639	N/A	-1	0.0533739495798319	0.0202170024946592	0.106747899159664	-1	0.2	1	3671.38333333333	1347.91392628056	FALSE	-0.893252100840336	1	-0.399371069181819	8.26032743405821	0.2
1	50 addicts	an adult	quantity	1	10	1	simplified	impersonal	k	Yes	8.6351539890498	N/A	-1	0.653056910569106	0.0426843114667307	0.693886178861789	-1	0.7	0	3671.38333333333	1347.91392628056	FALSE	-0.306113821138211	0	0.360249172141005	8.2749048169088	0.7
1	a mentor	48 nuns	quantity	1	12	1	simplified	impersonal	d	No	7.72179177681754	N/A	-1	0.528029166666667	0.0453050420486448	0.943941666666667	1	1	0	3671.38333333333	1347.91392628056	TRUE	0.056058333333333	0	-0.548253912474398	8.27004568929193	1
1	53 adults	5 gang members	quantity	1	83	1	simplified	impersonal	k	Yes	7.62168499872461	N/A	-1	0.1750625	0.0340036583042906	0.350125	1	0.4	1	3671.38333333333	1347.91392628056	TRUE	0.649875	1	-0.475861660168702	8.09754665889331	0.4
1	7 convicts	6 thieves	quantity	1	37	1	simplified	impersonal	k	Yes	8.31262602567496	N/A	-1	0.448780991735537	0.0453027458058051	0.897561983471074	1	0.9	1	3671.38333333333	1347.91392628056	TRUE	0.102438016528926	1	0.10331943159381	8.20930659408115	0.9
1	a soldier	7 assassins	quantity	1	35	1	simplified	impersonal	k	Yes	8.22951111896446	N/A	-1	0.89657264957265	0.028521836149375	0.206854700854701	1	0.3	1	3671.38333333333	1347.91392628056	TRUE	0.793145299145299	1	0.0153453972664419	8.21416572169801	0.3
1	50 thieves	49 mentors	quantity	1	28	1	simplified	impersonal	d	No	7.77443551030296	N/A	-1	0.203579365079365	0.0354293102478213	0.40715873015873	-1	0.5	1	3671.38333333333	1347.91392628056	FALSE	-0.59284126984127	1	-0.456737158054075	8.23117266835703	0.5
1	5 gang members	48 nuns	quantity	1	48	1	simplified	impersonal	d	No	7.84619881549743	N/A	-1	0.242362903225806	0.0378321211901128	0.484725806451613	-1	0.5	1	3671.38333333333	1347.91392628056	FALSE	-0.515274193548387	1	-0.336382576690982	8.18258139218841	0.5
1	3 pedophiles	6 elderly people	quantity	1	24	1	simplified	impersonal	d	No	7.97212112892166	N/A	-1	0.06175	0.0216507230465643	0.1235	-1	0.2	1	3671.38333333333	1347.91392628056	FALSE	-0.8765	1	-0.268769794669103	8.24089092359076	0.2
1	53 adults	5 orphans	quantity	1	6	1	simplified	impersonal	d	No	8.22416351263786	N/A	-1	0.47208064516129	0.0436717051622167	0.944161290322581	1	1	0	3671.38333333333	1347.91392628056	TRUE	0.055838709677419	0	-0.0604595595046611	8.28462307214252	1
1	a mentor	52 billionaires	quantity	1	39	1	simplified	impersonal	k	Yes	8.54519738782584	N/A	-1	0.55151968503937	0.0429826425534888	0.89696062992126	1	0.9	1	3671.38333333333	1347.91392628056	TRUE	0.10303937007874	1	0.340749921361546	8.20444746646429	0.9
1	an elderly person	51 convicts	quantity	1	97	1	simplified	impersonal	k	Yes	8.25452888193974	N/A	-1	0.799372727272727	0.0389443240971987	0.401254545454546	1	0.5	1	3671.38333333333	1347.91392628056	TRUE	0.598745454545454	1	0.19099611636447	8.06353276557527	0.5
1	48 congressmen	7 assassins	quantity	1	117	1	simplified	impersonal	k	Yes	7.43366654016617	N/A	-1	0.238050420168067	0.0369119119774473	0.476100840336134	1	0.5	1	3671.38333333333	1347.91392628056	TRUE	0.523899159663866	1	-0.581274949240481	8.01494148940665	0.5
1	50 addicts	a nun	quantity	1	93	1	simplified	impersonal	k	Yes	8.19007704971905	N/A	-1	0.597303149606299	0.0424350190432551	0.805393700787401	-1	0.9	0	3671.38333333333	1347.91392628056	FALSE	-0.194606299212599	0	0.116826028910049	8.073251020809	0.9
1	a thief	5 celebrities	quantity	1	120	1	simplified	impersonal	d	No	7.72444664563354	N/A	-1	0.199996031746032	0.0331893504926344	0.399992063492064	-1	0.4	1	3671.38333333333	1347.91392628056	FALSE	-0.600007936507936	1	-0.283206152347817	8.00765279798135	0.4
1	4 congressmen	a college student	quantity	1	41	1	simplified	impersonal	k	Yes	8.88861880730088	N/A	-1	0.689807086614173	0.0397931285701511	0.620385826771654	-1	0.7	0	3671.38333333333	1347.91392628056	FALSE	-0.379614173228346	0	0.689030468453451	8.19958833884743	0.7
1	an elderly person	48 congressmen	quantity	1	54	1	simplified	impersonal	d	No	8.46315930292375	N/A	-1	0.633979166666667	0.0440680569454623	0.732041666666667	1	0.8	0	3671.38333333333	1347.91392628056	TRUE	0.267958333333333	0	0.29515529358593	8.16800400933782	0.8
1	52 terrorists	8 terrorists	quantity	1	51	1	simplified	impersonal	k	Yes	8.35725915349991	N/A	-1	0.464114754098361	0.0384238223370671	0.928229508196721	1	1	1	3671.38333333333	1347.91392628056	TRUE	0.071770491803279	1	0.181966452736798	8.17529270076311	1
1	a mentor	7 convicts	quantity	1	76	1	simplified	impersonal	k	Yes	8.05293303679757	N/A	-1	0.818109756097561	0.0334653712354613	0.363780487804878	1	0.4	1	3671.38333333333	1347.91392628056	TRUE	0.636219512195122	1	-0.0616205687547637	8.11455360555233	0.4
1	9 rapists	a police officer	quantity	1	44	1	simplified	impersonal	d	No	8.13358741766097	N/A	-1	0.945265625	0.0201179006170559	0.10946875	-1	0.2	1	3671.38333333333	1347.91392628056	FALSE	-0.89053125	1	-0.0587122297611664	8.19229964742213	0.2
1	an assassin	a judge	quantity	1	96	1	simplified	impersonal	d	No	7.98104975966596	N/A	-1	0.876403225806452	0.0280121978147127	0.247193548387097	-1	0.3	1	3671.38333333333	1347.91392628056	FALSE	-0.752806451612903	1	-0.0849125697177477	8.06596232938371	0.3
1	52 terrorists	an elderly person	quantity	1	9	1	simplified	impersonal	d	No	8.46989191829822	N/A	-1	0.898957627118644	0.0277266006473646	0.202084745762712	-1	0.3	1	3671.38333333333	1347.91392628056	FALSE	-0.797915254237288	1	0.192557537580996	8.27733438071723	0.3
1	an astronaut	49 gang members	quantity	1	38	1	simplified	impersonal	k	Yes	8.03851202097681	N/A	-1	0.813574380165289	0.0346432985688847	0.372851239669421	1	0.4	1	3671.38333333333	1347.91392628056	TRUE	0.627148760330579	1	-0.168365009295908	8.20687703027272	0.4
1	51 assassins	an adult	quantity	1	116	1	simplified	impersonal	d	No	7.66996199547358	N/A	-1	0.799004098360656	0.0354824570066044	0.401991803278688	-1	0.5	1	3671.38333333333	1347.91392628056	FALSE	-0.598008196721312	1	-0.347409057741502	8.01737105321508	0.5
1	4 congressmen	49 mentors	quantity	1	74	1	simplified	impersonal	d	No	7.73149202924568	N/A	-1	0.308477611940298	0.0386314974222223	0.616955223880597	-1	0.7	1	3671.38333333333	1347.91392628056	FALSE	-0.383044776119403	1	-0.387920703923511	8.1194127331692	0.7
1	52 billionaires	6 elderly people	quantity	1	78	1	simplified	impersonal	k	Yes	8.26539293085222	N/A	-1	0.59937890625	0.0434940362977931	0.8012421875	-1	0.9	0	3671.38333333333	1347.91392628056	FALSE	-0.1987578125	0	0.155698452916754	8.10969447793547	0.9
1	5 gang members	3 pedophiles	quantity	1	34	1	simplified	impersonal	d	No	8.36915711258883	N/A	-1	0.302305555555556	0.0386241751777677	0.604611111111111	1	0.7	0	3671.38333333333	1347.91392628056	TRUE	0.395388888888889	0	0.152561827082387	8.21659528550645	0.7
1	a nun	47 college students	quantity	1	61	1	simplified	impersonal	d	No	7.78072088611792	N/A	-1	0.331311475409836	0.0401041195100394	0.662622950819672	-1	0.7	1	3671.38333333333	1347.91392628056	FALSE	-0.337377049180328	1	-0.370276176560883	8.1509970626788	0.7
1	a rapist	3 college students	quantity	1	42	1	simplified	impersonal	d	No	8.14815643992162	N/A	-1	0.0560714285714286	0.0198072623183234	0.112142857142857	-1	0.2	1	3671.38333333333	1347.91392628056	FALSE	-0.887857142857143	1	-0.0490023351173718	8.197158775039	0.2
1	a pedophile	6 elderly people	quantity	1	5	1	simplified	impersonal	d	No	8.30671904320269	N/A	-1	0.03244921875	0.015016230907984	0.0648984375	-1	0.1	1	3671.38333333333	1347.91392628056	FALSE	-0.9351015625	1	0.0196664072517372	8.28705263595095	0.1
1	49 orphans	4 congressmen	quantity	1	20	1	simplified	impersonal	d	No	7.83201418050547	N/A	-1	0.202442748091603	0.0334812130684927	0.404885496183206	1	0.5	0	3671.38333333333	1347.91392628056	TRUE	0.595114503816794	0	-0.418594998319014	8.25060917882448	0.5
1	a pedophile	6 addicts	quantity	1	43	1	simplified	impersonal	d	No	8.33182700443606	N/A	-1	0.144305555555556	0.029725874722301	0.288611111111111	-1	0.3	1	3671.38333333333	1347.91392628056	FALSE	-0.711388888888889	1	0.137097793205493	8.19472921123056	0.3
1	an orphan	4 homeless adults	quantity	1	19	1	simplified	impersonal	k	Yes	8.37470754311948	N/A	-1	0.56684188034188	0.0458910360247095	0.866316239316239	1	0.9	1	3671.38333333333	1347.91392628056	TRUE	0.133683760683761	1	0.121668800486567	8.25303874263292	0.9
1	an assassin	8 terrorists	quantity	1	107	1	simplified	impersonal	k	Yes	8.42222295382501	N/A	-1	0.601904761904762	0.0393489802280984	0.796190476190476	1	0.8	1	3671.38333333333	1347.91392628056	TRUE	0.203809523809524	1	0.382985826334048	8.03923712749096	0.8
1	an adult	a thief	quantity	1	89	1	simplified	impersonal	k	Yes	7.62997570702779	N/A	-1	0.874911764705882	0.0286464172995882	0.250176470588235	1	0.3	1	3671.38333333333	1347.91392628056	TRUE	0.749823529411765	1	-0.452993569014936	8.08296927604272	0.3
1	an elderly person	49 mentors	quantity	1	77	1	simplified	impersonal	d	No	8.27231514795602	N/A	-1	0.52805737704918	0.0426821673974668	0.943885245901639	1	1	0	3671.38333333333	1347.91392628056	TRUE	0.056114754098361	0	0.160191106212121	8.1121240417439	1
1	7 assassins	4 soldiers	quantity	1	91	1	simplified	impersonal	d	No	7.81399567500279	N/A	-1	0.906090909090909	0.0259385422940295	0.187818181818182	-1	0.2	1	3671.38333333333	1347.91392628056	FALSE	-0.812181818181818	1	-0.264114473423072	8.07811014842586	0.2
1	50 thieves	48 nuns	quantity	1	59	1	simplified	impersonal	d	No	8.1146238864201	N/A	-1	0.226584033613445	0.037969650280988	0.453168067226891	-1	0.5	1	3671.38333333333	1347.91392628056	FALSE	-0.546831932773109	1	-0.0412323038755655	8.15585619029566	0.5
1	50 addicts	4 homeless adults	quantity	1	52	1	simplified	impersonal	k	Yes	8.32457884513685	N/A	-1	0.652299180327869	0.0412594059030684	0.695401639344262	-1	0.7	0	3671.38333333333	1347.91392628056	FALSE	-0.304598360655738	0	0.151715708182168	8.17286313695468	0.7
1	an adult	9 rapists	quantity	1	111	1	simplified	impersonal	k	Yes	7.7591874385078	N/A	-1	0.950529661016949	0.0194113871007969	0.0989406779661017	1	0.1	1	3671.38333333333	1347.91392628056	TRUE	0.901059322033898	1	-0.270331433749441	8.02951887225724	0.1
1	5 celebrities	53 judges	quantity	1	110	1	simplified	impersonal	d	No	7.78655180642871	N/A	-1	0.422884328358209	0.0429150531904614	0.845768656716418	-1	0.9	1	3671.38333333333	1347.91392628056	FALSE	-0.154231343283582	1	-0.245396629636957	8.03194843606567	0.9
1	50 addicts	a college student	quantity	1	66	1	simplified	impersonal	k	Yes	8.09681747057232	N/A	-1	0.671872950819672	0.0412728415677808	0.656254098360656	-1	0.7	0	3671.38333333333	1347.91392628056	FALSE	-0.343745901639344	0	-0.0420317730643269	8.13884924363665	0.7
1	48 soldiers	48 nuns	quantity	1	68	1	simplified	impersonal	k	Yes	8.12710918534638	N/A	-1	0.705369565217391	0.0421065271971041	0.589260869565217	1	0.6	1	3671.38333333333	1347.91392628056	TRUE	0.410739130434783	1	-0.00688093067340567	8.13399011601978	0.6
1	53 adults	an orphan	quantity	1	115	1	simplified	impersonal	k	Yes	7.94944442025063	N/A	-1	0.490747933884297	0.0444743519222835	0.981495867768595	1	1	1	3671.38333333333	1347.91392628056	TRUE	0.018504132231405	1	-0.0703561967728854	8.01980061702351	1
1	a convict	49 mentors	quantity	1	86	1	simplified	impersonal	d	No	8.2960476427647	N/A	-1	0.19556015037594	0.0337570683147347	0.39112030075188	-1	0.4	1	3671.38333333333	1347.91392628056	FALSE	-0.60887969924812	1	0.20578967529668	8.09025796746802	0.4
1	a rapist	a terrorist	quantity	1	13	1	simplified	impersonal	k	Yes	8.64857226947262	N/A	-1	0.461587301587302	0.0378536059116503	0.923174603174603	-1	1	0	3671.38333333333	1347.91392628056	FALSE	-0.076825396825397	0	0.380956143989115	8.2676161254835	1
1	48 soldiers	49 gang members	quantity	1	88	1	simplified	impersonal	k	Yes	7.57609734062311	N/A	-1	0.903765217391304	0.0258069301207007	0.192469565217391	1	0.2	1	3671.38333333333	1347.91392628056	TRUE	0.807530434782609	1	-0.509301499228044	8.08539883985116	0.2
1	51 assassins	3 college students	quantity	1	47	1	simplified	impersonal	d	No	8.17131687471973	N/A	-1	0.795611538461538	0.0348906602371071	0.408776923076923	-1	0.5	1	3671.38333333333	1347.91392628056	FALSE	-0.591223076923077	1	-0.0136940812771087	8.18501095599684	0.5
1	5 gang members	48 homeless adults	quantity	1	30	1	simplified	impersonal	d	No	7.9402277651457	N/A	-1	0.235120967741935	0.0382154525504228	0.470241935483871	-1	0.5	1	3671.38333333333	1347.91392628056	FALSE	-0.529758064516129	1	-0.28608577559447	8.22631354074017	0.5
1	4 homeless adults	9 adults	quantity	1	14	1	simplified	impersonal	d	No	8.73729211254422	N/A	-1	0.526756198347107	0.0448740742583292	0.946487603305785	-1	1	1	3671.38333333333	1347.91392628056	FALSE	-0.053512396694215	1	0.472105550869149	8.26518656167507	1
1	4 congressmen	5 orphans	quantity	1	102	1	simplified	impersonal	d	No	7.91059061225648	N/A	-1	0.725655303030303	0.038565429784266	0.548689393939394	-1	0.6	1	3671.38333333333	1347.91392628056	FALSE	-0.451310606060606	1	-0.140794334276642	8.05138494653312	0.6
1	47 college students	6 addicts	quantity	1	67	1	simplified	impersonal	k	Yes	7.54697411751653	N/A	-1	0.286615702479339	0.0409338784174141	0.573231404958678	1	0.6	1	3671.38333333333	1347.91392628056	TRUE	0.426768595041322	1	-0.589445562311687	8.13641967982821	0.6
1	51 convicts	a homeless adult	quantity	1	118	1	simplified	impersonal	d	No	8.13388088794921	N/A	-1	0.717181818181818	0.0402924799968352	0.565636363636364	-1	0.6	1	3671.38333333333	1347.91392628056	FALSE	-0.434363636363636	1	0.121368962350989	8.01251192559822	0.6
1	an astronaut	4 soldiers	quantity	1	94	1	simplified	impersonal	d	No	7.81237820598861	N/A	-1	0.30992578125	0.0392623296423178	0.6198515625	-1	0.7	1	3671.38333333333	1347.91392628056	FALSE	-0.3801484375	1	-0.258443251011959	8.07082145700057	0.7
1	47 college students	6 thieves	quantity	1	69	1	simplified	impersonal	k	Yes	7.62021477057445	N/A	-1	0.118378151260504	0.0294185906685142	0.236756302521008	1	0.3	1	3671.38333333333	1347.91392628056	TRUE	0.763243697478992	1	-0.511345781636896	8.13156055221135	0.3
1	7 convicts	an elderly person	quantity	1	21	1	simplified	impersonal	d	No	8.11820704940578	N/A	-1	0.836322033898305	0.0331936784944894	0.32735593220339	-1	0.4	1	3671.38333333333	1347.91392628056	FALSE	-0.67264406779661	1	-0.12997256561027	8.24817961501605	0.4
1	5 mentors	a convict	quantity	1	92	1	simplified	impersonal	k	Yes	7.91315518592807	N/A	-1	0.164503968253968	0.0325196250930117	0.329007936507937	1	0.4	1	3671.38333333333	1347.91392628056	TRUE	0.670992063492063	1	-0.162525398689362	8.07568058461743	0.4
1	a nun	49 gang members	quantity	1	85	1	simplified	impersonal	k	Yes	8.46062283992784	N/A	-1	0.78885	0.0371606321158012	0.4223	1	0.5	1	3671.38333333333	1347.91392628056	TRUE	0.5777	1	0.367935308651393	8.09268753127645	0.5
1	51 assassins	47 college students	quantity	1	55	1	simplified	impersonal	d	No	7.62608275807238	N/A	-1	0.832670731707317	0.0336173754205215	0.334658536585366	-1	0.4	1	3671.38333333333	1347.91392628056	FALSE	-0.665341463414634	1	-0.539491687457009	8.16557444552939	0.4
1	a terrorist	5 mentors	quantity	1	32	1	simplified	impersonal	d	No	8.36730010184162	N/A	-1	0.0425344827586207	0.0173706451702267	0.0850689655172414	-1	0.1	1	3671.38333333333	1347.91392628056	FALSE	-0.914931034482759	1	0.145845688718312	8.22145441312331	0.1
1	a congressman	49 mentors	quantity	1	101	1	simplified	impersonal	d	No	8.13505390861157	N/A	-1	0.322030172413793	0.0431873900029033	0.644060344827586	-1	0.7	1	3671.38333333333	1347.91392628056	FALSE	-0.355939655172414	1	0.0812393982700197	8.05381451034155	0.7
1	an assassin	7 convicts	quantity	1	112	1	simplified	impersonal	k	Yes	8.29154650988391	N/A	-1	0.3868	0.0401678161399578	0.7736	-1	0.8	0	3671.38333333333	1347.91392628056	FALSE	-0.2264	0	0.264457201435105	8.0270893084488	0.8
1	50 police officers	3 pedophiles	quantity	1	7	1	simplified	impersonal	k	Yes	7.78696700261487	N/A	-1	0.0938893805309735	0.0255783044102068	0.187778761061947	1	0.2	1	3671.38333333333	1347.91392628056	TRUE	0.812221238938053	1	-0.495226505719219	8.28219350833409	0.2
1	3 college students	53 rapists	quantity	1	53	1	simplified	impersonal	k	Yes	7.98718474823347	N/A	-1	0.903459349593496	0.026555848608325	0.193081300813008	1	0.2	1	3671.38333333333	1347.91392628056	TRUE	0.806918699186992	1	-0.183248824912779	8.17043357314625	0.2
1	4 homeless adults	a gang member	quantity	1	63	1	simplified	impersonal	k	Yes	7.9728107841214	N/A	-1	0.132564102564103	0.0304813438864451	0.265128205128205	1	0.3	1	3671.38333333333	1347.91392628056	TRUE	0.734871794871795	1	-0.173327150940534	8.14613793506194	0.3
10	51 assassins	5 mentors	quantity	1	24	1	simplified	impersonal	k	No	8.5440298453698	N/A	-1	0.817391666666667	0.0353641178196558	0.365216666666667	-1	0.4	1	5695.025	3734.56844269204	FALSE	-0.634783333333333	1	-0.349925716966938	8.89395556233674	0.4
10	an orphan	a judge	quantity	1	77	1	simplified	impersonal	d	Yes	7.82803803212583	N/A	-1	0.653075630252101	0.0415884355181415	0.693848739495798	1	0.7	1	5695.025	3734.56844269204	TRUE	0.306151260504202	1	-0.376934520961782	8.20497255308761	0.7
10	an orphan	6 thieves	quantity	1	62	1	simplified	impersonal	d	Yes	7.87473912517181	N/A	-1	0.896201680672269	0.027482707059728	0.207596638655462	1	0.3	1	5695.025	3734.56844269204	TRUE	0.792403361344538	1	-0.452413834668691	8.3271529598405	0.3
10	52 terrorists	a police officer	quantity	1	68	1	simplified	impersonal	k	No	9.38151671766514	N/A	-1	0.881767441860465	0.028336867994834	0.23646511627907	-1	0.3	1	5695.025	3734.56844269204	FALSE	-0.76353488372093	1	1.10809780347893	8.27341891418621	0.3
10	an elderly person	8 terrorists	quantity	1	10	1	simplified	impersonal	k	No	8.65799806800726	N/A	-1	0.949273109243697	0.0185908337381438	0.101453781512605	1	0.2	0	5695.025	3734.56844269204	TRUE	0.898546218487395	0	-0.596084798495772	9.25408286650303	0.2
10	51 convicts	4 soldiers	quantity	1	104	1	simplified	impersonal	d	Yes	8.01135510916129	N/A	-1	0.831333333333333	0.0343589790411236	0.337333333333333	-1	0.4	0	5695.025	3734.56844269204	FALSE	-0.662666666666667	0	-0.0534104107609803	8.06476551992227	0.4
10	9 rapists	47 pedophiles	quantity	1	101	1	simplified	impersonal	k	No	7.52402141520612	N/A	-1	0.497079831932773	0.0380705827710576	0.994159663865546	-1	1	1	5695.025	3734.56844269204	FALSE	-0.00584033613445401	1	-0.552549438983428	8.07657085418955	1
10	an assassin	49 celebrities	quantity	1	97	1	simplified	impersonal	k	No	8.29379960884682	N/A	-1	0.172693798449612	0.0316820550288731	0.345387596899225	-1	0.4	1	5695.025	3734.56844269204	FALSE	-0.654612403100775	1	0.200231094537839	8.09356851430898	0.4
10	4 homeless adults	49 gang members	quantity	1	83	1	simplified	impersonal	d	Yes	7.85438121065236	N/A	-1	0.823730434782609	0.0350595656404518	0.352539130434783	1	0.4	1	5695.025	3734.56844269204	TRUE	0.647460869565217	1	-0.311911305547147	8.16629251619951	0.4
10	5 orphans	48 homeless adults	quantity	1	99	1	simplified	impersonal	d	Yes	7.83201418050547	N/A	-1	0.551104166666667	0.045723960067718	0.897791666666667	1	0.9	1	5695.025	3734.56844269204	TRUE	0.102208333333333	1	-0.25286928272849	8.08488346323396	0.9
10	a rapist	9 adults	quantity	1	15	1	simplified	impersonal	k	No	8.82790796297859	N/A	-1	0.0529961538461539	0.0188218473974859	0.105992307692308	-1	0.2	1	5695.025	3734.56844269204	FALSE	-0.894007692307692	1	-0.284712174596566	9.11262013757516	0.2
10	a mentor	6 elderly people	quantity	1	46	1	simplified	impersonal	d	Yes	8.43489794868941	N/A	-1	0.433087301587302	0.0436468132986701	0.866174603174603	-1	0.9	0	5695.025	3734.56844269204	FALSE	-0.133825396825397	0	-0.0754107783423823	8.51030872703179	0.9
10	50 police officers	47 pedophiles	quantity	1	25	1	simplified	impersonal	d	Yes	8.91476052739726	N/A	-1	0.0780663716814159	0.0241608181170436	0.156132743362832	1	0.2	1	5695.025	3734.56844269204	TRUE	0.843867256637168	1	0.0425446549984336	8.87221587239883	0.2
10	6 elderly people	a gang member	quantity	1	1	1	simplified	impersonal	d	Yes	10.0858924391914	N/A	-1	0.106467479674797	0.026396699366012	0.212934959349594	1	0.3	1	5695.025	3734.56844269204	TRUE	0.787065040650406	1	0.534626834057478	9.55126560513391	0.3
10	an assassin	a billionaire	quantity	1	100	1	simplified	impersonal	k	No	8.08978917578932	N/A	-1	0.853606837606838	0.0305612646646622	0.292786324786325	-1	0.3	1	5695.025	3734.56844269204	FALSE	-0.707213675213675	1	0.00910755770873095	8.08068161808059	0.3
10	7 convicts	a thief	quantity	1	85	1	simplified	impersonal	d	Yes	8.12148037475075	N/A	-1	0.438888429752066	0.0425994290377607	0.877776859504132	1	0.9	1	5695.025	3734.56844269204	TRUE	0.122223140495868	1	-0.033008458749773	8.15448883350052	0.9
10	a billionaire	49 mentors	quantity	1	5	1	simplified	impersonal	k	No	9.29025999515206	N/A	-1	0.424517094017094	0.0452623638386025	0.849034188034188	-1	0.9	1	5695.025	3734.56844269204	FALSE	-0.150965811965812	1	-0.121667419116353	9.41192741426841	0.9
10	8 billionaires	48 soldiers	quantity	1	98	1	simplified	impersonal	k	No	9.28266103355581	N/A	-1	0.299818548387097	0.040382873124189	0.599637096774194	-1	0.6	1	5695.025	3734.56844269204	FALSE	-0.400362903225806	1	1.19348262583929	8.08917840771652	0.6
10	an elderly person	9 adults	quantity	1	3	1	simplified	impersonal	k	No	9.06912237006065	N/A	-1	0.537574380165289	0.0458408484057936	0.924851239669422	1	1	0	5695.025	3734.56844269204	TRUE	0.075148760330578	0	-0.410947594269469	9.48006996433011	1
10	5 gang members	53 judges	quantity	1	79	1	simplified	impersonal	k	No	8.73359406186306	N/A	-1	0.257358208955224	0.0354303526336491	0.514716417910448	-1	0.6	1	5695.025	3734.56844269204	FALSE	-0.485283582089552	1	0.542083911884745	8.19151014997831	0.6
10	49 celebrities	7 assassins	quantity	1	88	1	simplified	impersonal	d	Yes	7.95050243480885	N/A	-1	0.215888429752066	0.0356416326014364	0.431776859504132	1	0.5	1	5695.025	3734.56844269204	TRUE	0.568223140495868	1	-0.187223139514907	8.13772557432376	0.5
10	49 orphans	53 judges	quantity	1	84	1	simplified	impersonal	d	Yes	7.47363710849621	N/A	-1	0.651811538461538	0.0417248042259045	0.696376923076923	1	0.7	1	5695.025	3734.56844269204	TRUE	0.303623076923077	1	-0.686688899874568	8.16032600837077	0.7
10	4 homeless adults	48 congressmen	quantity	1	108	1	simplified	impersonal	k	No	8.96264794774056	N/A	-1	0.574086776859504	0.0450706788712246	0.851826446280992	1	0.9	0	5695.025	3734.56844269204	TRUE	0.148173553719008	0	0.912462731380911	8.05018521635965	0.9
10	4 soldiers	49 mentors	quantity	1	67	1	simplified	impersonal	k	No	8.15306194680105	N/A	-1	0.581015503875969	0.0440603437078202	0.837968992248062	1	0.9	0	5695.025	3734.56844269204	TRUE	0.162031007751938	0	-0.128829249054515	8.28189119585557	0.9
10	49 gang members	a homeless adult	quantity	1	111	1	simplified	impersonal	k	No	8.46695197497949	N/A	-1	0.77952	0.0356963279319852	0.44096	-1	0.5	1	5695.025	3734.56844269204	FALSE	-0.55904	1	0.426893173436108	8.04005880154338	0.5
10	50 elderly people	5 orphans	quantity	1	82	1	simplified	impersonal	k	No	7.96102146588337	N/A	-1	0.499448	0.0434793024983813	0.998896	1	1	0	5695.025	3734.56844269204	TRUE	0.00110399999999999	0	-0.211369756704366	8.17239122258774	1
10	an orphan	a thief	quantity	1	61	1	simplified	impersonal	d	Yes	7.97522083865341	N/A	-1	0.911605042016807	0.025760841768342	0.176789915966387	1	0.2	1	5695.025	3734.56844269204	TRUE	0.823210084033613	1	-0.361594975907694	8.3368158145611	0.2
10	7 convicts	6 elderly people	quantity	1	23	1	simplified	impersonal	k	No	9.34914533485336	N/A	-1	0.153748	0.0333465513732453	0.307496	-1	0.4	1	5695.025	3734.56844269204	FALSE	-0.692504	1	0.432968401203958	8.91617693364941	0.4
10	an elderly person	5 astronauts	quantity	1	8	1	simplified	impersonal	k	No	9.44604470533525	N/A	-1	0.550547008547009	0.0475124553578172	0.898905982905983	1	0.9	0	5695.025	3734.56844269204	TRUE	0.101094017094017	0	0.130891429848809	9.31515327548644	0.9
10	52 billionaires	9 adults	quantity	1	4	1	simplified	impersonal	k	No	9.1586259362895	N/A	-1	0.56848828125	0.0443385614498771	0.8630234375	-1	0.9	1	5695.025	3734.56844269204	FALSE	-0.1369765625	1	-0.286999434028596	9.4456253703181	0.9
10	a nun	53 rapists	quantity	1	18	1	simplified	impersonal	d	Yes	9.36631795343053	N/A	-1	0.897306722689076	0.0275225884550039	0.205386554621849	1	0.3	1	5695.025	3734.56844269204	TRUE	0.794613445378151	1	0.33142701769431	9.03489093573623	0.3
10	49 astronauts	5 orphans	quantity	1	76	1	simplified	impersonal	k	No	7.90396563403217	N/A	-1	0.495662601626016	0.0444143385289654	0.991325203252033	1	1	0	5695.025	3734.56844269204	TRUE	0.00867479674796701	0	-0.307962650240138	8.2119282842723	1
10	5 gang members	9 judges	quantity	1	13	1	simplified	impersonal	k	No	9.13421498158669	N/A	-1	0.273352459016393	0.0382871278630979	0.546704918032787	-1	0.6	1	5695.025	3734.56844269204	FALSE	-0.453295081967213	1	-0.0331374025807012	9.16735238416739	0.6
10	a rapist	an assassin	quantity	1	116	1	simplified	impersonal	k	No	8.20385137218388	N/A	-1	0.377301526717557	0.0394114258697756	0.754603053435114	-1	0.8	1	5695.025	3734.56844269204	FALSE	-0.245396946564886	1	0.179258408461925	8.02459296372195	0.8
10	5 gang members	a judge	quantity	1	40	1	simplified	impersonal	d	Yes	8.70466811345099	N/A	-1	0.757019841269841	0.0371618749513295	0.485960317460318	-1	0.5	0	5695.025	3734.56844269204	FALSE	-0.514039682539682	0	0.107336241287843	8.59733187216314	0.5
10	an orphan	5 mentors	quantity	1	118	1	simplified	impersonal	d	Yes	7.21229446850034	N/A	-1	0.549896551724138	0.0440319348261085	0.900206896551724	1	1	1	5695.025	3734.56844269204	TRUE	0.099793103448276	1	-0.806571330508033	8.01886579900837	1
10	6 addicts	6 elderly people	quantity	1	87	1	simplified	impersonal	d	Yes	8.28576542051433	N/A	-1	0.284940476190476	0.0406830384364189	0.569880952380952	-1	0.6	0	5695.025	3734.56844269204	FALSE	-0.430119047619048	0	0.142574091048427	8.1431913294659	0.6
10	an adult	a homeless adult	quantity	1	112	1	simplified	impersonal	d	Yes	8.31605572036464	N/A	-1	0.583913385826772	0.0430786982635388	0.832173228346457	1	0.9	1	5695.025	3734.56844269204	TRUE	0.167826771653543	1	0.279227122559583	8.03682859780506	0.9
10	a college student	a judge	quantity	1	74	1	simplified	impersonal	d	Yes	7.64873978895624	N/A	-1	0.588338983050847	0.0429757456168185	0.823322033898305	1	0.9	1	5695.025	3734.56844269204	TRUE	0.176677966101695	1	-0.577565722081466	8.22630551103771	0.9
10	53 adults	4 nuns	quantity	1	9	1	simplified	impersonal	d	Yes	8.92651750985012	N/A	-1	0.363244	0.0403974803721769	0.726488	1	0.8	1	5695.025	3734.56844269204	TRUE	0.273512	1	-0.357765986890492	9.28428349674061	0.8
10	50 addicts	5 orphans	quantity	1	89	1	simplified	impersonal	k	No	8.18311807939475	N/A	-1	0.691488095238095	0.0416186365219054	0.617023809523809	-1	0.7	1	5695.025	3734.56844269204	FALSE	-0.382976190476191	1	0.0507397818161888	8.13237829757856	0.7
10	51 assassins	51 convicts	quantity	1	45	1	simplified	impersonal	k	No	8.74576199937551	N/A	-1	0.528383620689655	0.0455688345476295	0.94323275862069	-1	1	1	5695.025	3734.56844269204	FALSE	-0.05676724137931	1	0.221732276868163	8.52402972250735	1
10	49 celebrities	50 police officers	quantity	1	72	1	simplified	impersonal	k	No	9.0300168178449	N/A	-1	0.404826271186441	0.0438770531112591	0.809652542372881	-1	0.9	1	5695.025	3734.56844269204	FALSE	-0.190347457627119	1	0.788689916037146	8.24132690180775	0.9
10	a mentor	49 celebrities	quantity	1	16	1	simplified	impersonal	k	No	9.65027131696563	N/A	-1	0.580417322834646	0.0419049717479735	0.839165354330709	1	0.9	0	5695.025	3734.56844269204	TRUE	0.160834645669291	0	0.564130750217434	9.08614056674819	0.9
10	8 billionaires	5 celebrities	quantity	1	93	1	simplified	impersonal	d	Yes	8.69030580912488	N/A	-1	0.419503759398496	0.0421381269255984	0.839007518796992	1	0.9	1	5695.025	3734.56844269204	TRUE	0.160992481203008	1	0.57818237064984	8.11212343847504	0.9
10	7 assassins	47 pedophiles	quantity	1	12	1	simplified	impersonal	d	Yes	8.86035727332702	N/A	-1	0.638547413793103	0.0415655700529354	0.722905172413793	1	0.8	1	5695.025	3734.56844269204	TRUE	0.277094827586207	1	-0.335274073469771	9.19563134679679	0.8
10	an orphan	6 addicts	quantity	1	81	1	simplified	impersonal	d	Yes	8.1285852003745	N/A	-1	0.719690082644628	0.0391375938798481	0.560619834710744	1	0.6	1	5695.025	3734.56844269204	TRUE	0.439380165289256	1	-0.0500398562544238	8.17862505662892	0.6
10	49 gang members	6 police officers	quantity	1	39	1	simplified	impersonal	d	Yes	8.50228257868048	N/A	-1	0.838966386554622	0.033734599461106	0.322067226890756	-1	0.4	0	5695.025	3734.56844269204	FALSE	-0.677932773109244	0	-0.110698441029527	8.61298101971001	0.4
10	49 orphans	49 celebrities	quantity	1	102	1	simplified	impersonal	d	Yes	7.7007477945118	N/A	-1	0.691688976377953	0.0403813971996136	0.616622047244094	1	0.7	1	5695.025	3734.56844269204	TRUE	0.383377952755906	1	-0.371801402726813	8.07254919723861	0.7
10	8 billionaires	an adult	quantity	1	113	1	simplified	impersonal	d	Yes	8.28273588020175	N/A	-1	0.5255	0.0421542464674019	0.949	-1	1	0	5695.025	3734.56844269204	FALSE	-0.051	0	0.249067466649921	8.03366841355183	1
10	48 homeless adults	a convict	quantity	1	73	1	simplified	impersonal	d	Yes	8.25919936266628	N/A	-1	0.222043307086614	0.0360251341123495	0.444086614173228	1	0.5	1	5695.025	3734.56844269204	TRUE	0.555913385826772	1	0.0254654509374355	8.23373391172885	0.5
10	8 billionaires	6 addicts	quantity	1	27	1	simplified	impersonal	k	No	8.5991417740634	N/A	-1	0.627166666666667	0.0434565483512444	0.745666666666667	1	0.8	0	5695.025	3734.56844269204	TRUE	0.254333333333333	0	-0.230998224262052	8.83013999832546	0.8
10	a pedophile	a celebrity	quantity	1	11	1	simplified	impersonal	k	No	9.35418094195186	N/A	-1	0.0942521367521368	0.0259211076849201	0.188504273504273	-1	0.2	1	5695.025	3734.56844269204	FALSE	-0.811495726495727	1	0.129644061970369	9.22453687998149	0.2
10	48 soldiers	a soldier	quantity	1	91	1	simplified	impersonal	d	Yes	9.05075830215172	N/A	-1	0.412512711864407	0.0433358766419148	0.825025423728814	1	0.9	1	5695.025	3734.56844269204	TRUE	0.174974576271186	1	0.92872933998729	8.12202896216443	0.9
10	8 terrorists	9 adults	quantity	1	64	1	simplified	impersonal	k	No	7.77064523412918	N/A	-1	0.051272	0.0197663533491822	0.102544	-1	0.2	1	5695.025	3734.56844269204	FALSE	-0.897456	1	-0.537805846357271	8.30845108048645	0.2
10	52 terrorists	an assassin	quantity	1	90	1	simplified	impersonal	k	No	8.22577079934873	N/A	-1	0.555084	0.0416259253550196	0.889832	-1	0.9	1	5695.025	3734.56844269204	FALSE	-0.110168	1	0.098623868314446	8.12714693103429	0.9
10	a rapist	7 assassins	quantity	1	55	1	simplified	impersonal	k	No	8.36938899664784	N/A	-1	0.347321138211382	0.0377363430915292	0.694642276422764	-1	0.7	1	5695.025	3734.56844269204	FALSE	-0.305357723577236	1	-0.0300697554180136	8.39945875206586	0.7
10	4 congressmen	48 nuns	quantity	1	107	1	simplified	impersonal	k	No	7.68616230349291	N/A	-1	0.362232283464567	0.0412802156172384	0.724464566929134	-1	0.8	1	5695.025	3734.56844269204	FALSE	-0.275535433070866	1	-0.367549056170257	8.05371135966316	0.8
10	50 addicts	48 soldiers	quantity	1	42	1	simplified	impersonal	d	Yes	8.51036996606811	N/A	-1	0.786194214876033	0.0369930647012717	0.427611570247934	-1	0.5	0	5695.025	3734.56844269204	FALSE	-0.572388429752066	0	-0.0566739137907142	8.56704387985883	0.5
10	4 soldiers	a gang member	quantity	1	95	1	simplified	impersonal	d	Yes	8.12237124340655	N/A	-1	0.0936612903225807	0.0249819134628766	0.187322580645161	1	0.2	1	5695.025	3734.56844269204	TRUE	0.812677419354839	1	0.0197285489246894	8.10264269448186	0.2
10	a soldier	51 convicts	quantity	1	75	1	simplified	impersonal	d	Yes	8.04910772132641	N/A	-1	0.819298245614035	0.0359866540298178	0.36140350877193	1	0.4	1	5695.025	3734.56844269204	TRUE	0.63859649122807	1	-0.169930410687408	8.21903813201381	0.4
10	4 congressmen	an addict	quantity	1	94	1	simplified	impersonal	k	No	8.67248607582227	N/A	-1	0.395106299212598	0.0435266055560606	0.790212598425197	1	0.8	0	5695.025	3734.56844269204	TRUE	0.209787401574803	0	0.565154949602659	8.10733112621961	0.8
10	6 elderly people	a judge	quantity	1	31	1	simplified	impersonal	d	Yes	8.89699855274382	N/A	-1	0.347375	0.0430188495524024	0.69475	1	0.7	1	5695.025	3734.56844269204	TRUE	0.30525	1	0.145674645029414	8.75132390771441	0.7
10	4 homeless adults	9 judges	quantity	1	50	1	simplified	impersonal	d	Yes	8.0481491016652	N/A	-1	0.613100877192982	0.043970504016616	0.773798245614035	1	0.8	1	5695.025	3734.56844269204	TRUE	0.226201754385965	1	-0.410186098773499	8.4583352004387	0.8
10	a rapist	a thief	quantity	1	70	1	simplified	impersonal	k	No	8.28071107566285	N/A	-1	0.317595238095238	0.0374953016549737	0.635190476190476	-1	0.7	1	5695.025	3734.56844269204	FALSE	-0.364809523809524	1	0.0236897576545054	8.25702131800834	0.7
10	5 astronauts	6 police officers	quantity	1	117	1	simplified	impersonal	k	No	7.74022952476318	N/A	-1	0.525880165289256	0.0452840387529995	0.948239669421488	-1	1	1	5695.025	3734.56844269204	FALSE	-0.051760330578512	1	-0.281468480328364	8.02169800509155	1
10	9 judges	9 adults	quantity	1	29	1	simplified	impersonal	k	No	8.81328976246904	N/A	-1	0.630159663865546	0.0431639723061279	0.739680672268908	-1	0.8	1	5695.025	3734.56844269204	FALSE	-0.260319327731092	1	0.0234212937353462	8.78986846873369	0.8
10	an astronaut	9 judges	quantity	1	65	1	simplified	impersonal	k	No	8.15133333790043	N/A	-1	0.565816666666667	0.0459903020827592	0.868366666666667	1	0.9	0	5695.025	3734.56844269204	TRUE	0.131633333333333	0	-0.148069735793191	8.29940307369362	0.9
10	49 celebrities	5 mentors	quantity	1	115	1	simplified	impersonal	k	No	7.9098566672694	N/A	-1	0.603319672131148	0.0433430938717701	0.793360655737705	-1	0.8	1	5695.025	3734.56844269204	FALSE	-0.206639344262295	1	-0.117695398024142	8.02755206529354	0.8
10	5 mentors	47 pedophiles	quantity	1	114	1	simplified	impersonal	d	Yes	7.82564473221999	N/A	-1	0.940094017094017	0.0222348528974792	0.119811965811966	1	0.2	1	5695.025	3734.56844269204	TRUE	0.880188034188034	1	-0.204931998786912	8.0305767310069	0.2
10	a soldier	50 police officers	quantity	1	32	1	simplified	impersonal	k	No	8.9159693113736	N/A	-1	0.592039473684211	0.0465225164258456	0.815921052631579	1	0.9	0	5695.025	3734.56844269204	TRUE	0.184078947368421	0	0.183293339694202	8.7326759716794	0.9
10	a congressman	a judge	quantity	1	92	1	simplified	impersonal	k	No	7.59186171488993	N/A	-1	0.400824324324324	0.0458452117983542	0.801648648648649	-1	0.9	1	5695.025	3734.56844269204	FALSE	-0.198351351351351	1	-0.525160218015266	8.1170219329052	0.9
10	5 mentors	5 orphans	quantity	1	33	1	simplified	impersonal	d	Yes	9.49114887548479	N/A	-1	0.536075630252101	0.0428741782600835	0.927848739495798	-1	1	0	5695.025	3734.56844269204	FALSE	-0.072151260504202	0	0.7767166180064	8.71443225747839	1
10	49 celebrities	9 adults	quantity	1	56	1	simplified	impersonal	k	No	8.4084937744929	N/A	-1	0.60513671875	0.043084259944823	0.7897265625	-1	0.8	1	5695.025	3734.56844269204	FALSE	-0.2102734375	1	0.0200557562736474	8.38843801821925	0.8
10	53 rapists	48 nuns	quantity	1	6	1	simplified	impersonal	k	No	9.73352925472557	N/A	-1	0.109109649122807	0.0284215476940256	0.218219298245614	-1	0.3	1	5695.025	3734.56844269204	FALSE	-0.781780701754386	1	0.354569343036253	9.37895991168932	0.3
10	5 gang members	6 police officers	quantity	1	47	1	simplified	impersonal	d	Yes	9.22611529109155	N/A	-1	0.81362890625	0.0339644068671766	0.3727421875	-1	0.4	0	5695.025	3734.56844269204	FALSE	-0.6272578125	0	0.729230136488335	8.49688515460321	0.4
10	49 astronauts	an adult	quantity	1	71	1	simplified	impersonal	d	Yes	8.29729437026692	N/A	-1	0.429	0.0458469903008148	0.858	1	0.9	1	5695.025	3734.56844269204	TRUE	0.142	1	0.0482062422227791	8.24908812804414	0.9
10	a nun	49 mentors	quantity	1	60	1	simplified	impersonal	k	No	9.14952823257943	N/A	-1	0.384527559055118	0.0432267780167488	0.769055118110236	-1	0.8	1	5695.025	3734.56844269204	FALSE	-0.230944881889764	1	0.802835465619268	8.34669276696016	0.8
10	a terrorist	49 astronauts	quantity	1	51	1	simplified	impersonal	k	No	8.25764495820823	N/A	-1	0.053375	0.0192133323046618	0.10675	-1	0.2	1	5695.025	3734.56844269204	FALSE	-0.89325	1	-0.188393273528934	8.44603823173716	0.2
10	a pedophile	51 assassins	quantity	1	34	1	simplified	impersonal	k	No	8.74909824839902	N/A	-1	0.262511811023622	0.0359156847589553	0.525023622047244	-1	0.6	1	5695.025	3734.56844269204	FALSE	-0.474976377952756	1	0.0525142453989478	8.69658400300007	0.6
10	8 billionaires	49 mentors	quantity	1	44	1	simplified	impersonal	k	No	8.23615566168312	N/A	-1	0.443286259541985	0.0452007942355185	0.88657251908397	-1	0.9	1	5695.025	3734.56844269204	FALSE	-0.11342748091603	1	-0.301899069281692	8.53805473096482	0.9
10	7 assassins	a judge	quantity	1	49	1	simplified	impersonal	k	No	8.1886891244442	N/A	-1	0.827655172413793	0.0359900788174762	0.344689655172414	-1	0.4	1	5695.025	3734.56844269204	FALSE	-0.655310344827586	1	-0.282215505839989	8.47090463028419	0.4
10	an astronaut	9 adults	quantity	1	21	1	simplified	impersonal	k	No	9.15143926405602	N/A	-1	0.408685039370079	0.0441970805233092	0.817370078740157	-1	0.9	1	5695.025	3734.56844269204	FALSE	-0.182629921259843	1	0.189331617169209	8.96210764688681	0.9
10	50 addicts	3 college students	quantity	1	30	1	simplified	impersonal	d	Yes	8.75258146914688	N/A	-1	0.639019083969466	0.0413034904760853	0.721961832061069	-1	0.8	0	5695.025	3734.56844269204	FALSE	-0.278038167938931	0	-0.0178035526879405	8.77038502183482	0.8
10	52 terrorists	a congressman	quantity	1	14	1	simplified	impersonal	d	Yes	8.92092346223069	N/A	-1	0.810665178571429	0.035393349836518	0.378669642857143	-1	0.4	0	5695.025	3734.56844269204	FALSE	-0.621330357142857	0	-0.218762948011047	9.13968641024173	0.4
10	a soldier	an adult	quantity	1	105	1	simplified	impersonal	k	No	8.21446516075919	N/A	-1	0.614379166666667	0.0416699195844004	0.771241666666667	1	0.8	0	5695.025	3734.56844269204	TRUE	0.228758333333333	0	0.153465399555504	8.06099976120368	0.8
10	an assassin	an orphan	quantity	1	28	1	simplified	impersonal	k	No	8.87486763568805	N/A	-1	0.928298387096774	0.0228357381671579	0.143403225806452	-1	0.2	1	5695.025	3734.56844269204	FALSE	-0.856596774193548	1	0.0650840297455524	8.8097836059425	0.2
10	48 congressmen	6 thieves	quantity	1	41	1	simplified	impersonal	k	No	8.31311670281925	N/A	-1	0.24369512195122	0.0381062108428527	0.487390243902439	1	0.5	0	5695.025	3734.56844269204	TRUE	0.512609756097561	0	-0.268905240416716	8.58202194323597	0.5
10	an elderly person	47 college students	quantity	1	20	1	simplified	impersonal	k	No	8.86177531100083	N/A	-1	0.480799145299145	0.0457001899949321	0.961598290598291	-1	1	1	5695.025	3734.56844269204	FALSE	-0.0384017094017089	1	-0.124063737464637	8.98583904846547	1
10	9 judges	47 pedophiles	quantity	1	52	1	simplified	impersonal	d	Yes	8.51699317141357	N/A	-1	0.899043103448276	0.0271495579819916	0.201913793103448	1	0.3	1	5695.025	3734.56844269204	TRUE	0.798086206896552	1	0.0829853532357703	8.4340078181778	0.3
10	a celebrity	47 pedophiles	quantity	1	53	1	simplified	impersonal	d	Yes	8.34616759436413	N/A	-1	0.874676991150443	0.0315780444522537	0.250646017699115	1	0.3	1	5695.025	3734.56844269204	TRUE	0.749353982300885	1	-0.0760705874161065	8.42223818178024	0.3
10	an astronaut	5 orphans	quantity	1	48	1	simplified	impersonal	k	No	8.03722003113301	N/A	-1	0.393	0.044034718874921	0.786	-1	0.8	1	5695.025	3734.56844269204	FALSE	-0.214	1	-0.446532527000333	8.48375255813334	0.8
10	an addict	50 elderly people	quantity	1	7	1	simplified	impersonal	d	Yes	9.52332462729018	N/A	-1	0.207475	0.036574366453894	0.41495	-1	0.5	0	5695.025	3734.56844269204	FALSE	-0.58505	0	0.176617598378074	9.34670702891211	0.5
10	an assassin	47 college students	quantity	1	58	1	simplified	impersonal	k	No	7.97212112892166	N/A	-1	0.0899314516129032	0.0248287272129167	0.179862903225806	-1	0.2	1	5695.025	3734.56844269204	FALSE	-0.820137096774194	1	-0.394986915831989	8.36710804475364	0.2
10	9 judges	50 police officers	quantity	1	120	1	simplified	impersonal	k	No	7.93666015522543	N/A	-1	0.368454128440367	0.0447241191979681	0.736908256880734	-1	0.8	1	5695.025	3734.56844269204	FALSE	-0.263091743119266	1	-0.0767240777235569	8.01338423294898	0.8
10	a mentor	9 rapists	quantity	1	37	1	simplified	impersonal	d	Yes	8.34972083747249	N/A	-1	0.95733606557377	0.0180715600964925	0.085327868852459	1	0.1	1	5695.025	3734.56844269204	TRUE	0.914672131147541	1	-0.295606363680207	8.6453272011527	0.1
10	50 police officers	53 judges	quantity	1	26	1	simplified	impersonal	k	No	9.53249633228804	N/A	-1	0.540747933884298	0.0457178857592066	0.918504132231405	1	1	0	5695.025	3734.56844269204	TRUE	0.081495867768595	0	0.68154890961476	8.85094742267328	1
10	a nun	an adult	quantity	1	69	1	simplified	impersonal	k	No	7.44014668066269	N/A	-1	0.580122950819672	0.042843608916927	0.839754098360656	-1	0.9	1	5695.025	3734.56844269204	FALSE	-0.160245901639344	1	-0.824983601198958	8.26513028186165	0.9
10	9 rapists	6 thieves	quantity	1	43	1	simplified	impersonal	d	Yes	8.82497196556714	N/A	-1	0.295214285714286	0.0397556278585423	0.590428571428571	-1	0.6	0	5695.025	3734.56844269204	FALSE	-0.409571428571429	0	0.27258147721632	8.55239048835082	0.6
10	8 billionaires	6 elderly people	quantity	1	96	1	simplified	impersonal	k	No	8.3790798892866	N/A	-1	0.418274809160305	0.042733368785824	0.836549618320611	-1	0.9	1	5695.025	3734.56844269204	FALSE	-0.163450381679389	1	0.281023997790008	8.09805589149659	0.9
10	50 addicts	49 orphans	quantity	1	103	1	simplified	impersonal	k	No	8.01301211036892	N/A	-1	0.745801587301587	0.03700353516696	0.508396825396825	-1	0.6	1	5695.025	3734.56844269204	FALSE	-0.491603174603175	1	-0.0556026053329877	8.0686147157019	0.6
10	53 adults	48 congressmen	quantity	1	119	1	simplified	impersonal	d	Yes	7.69666708152646	N/A	-1	0.65542	0.0425922727933331	0.68916	1	0.7	1	5695.025	3734.56844269204	TRUE	0.31084	1	-0.319427903690899	8.01609498521736	0.7
10	49 mentors	48 nuns	quantity	1	63	1	simplified	impersonal	d	Yes	8.45553053102413	N/A	-1	0.556561475409836	0.0449460825932309	0.886877049180328	1	0.9	1	5695.025	3734.56844269204	TRUE	0.113122950819672	1	0.137830969112365	8.31769956191177	0.9
10	a nun	an astronaut	quantity	1	109	1	simplified	impersonal	k	No	7.8991534833431	N/A	-1	0.440905511811024	0.0429145988264448	0.881811023622047	-1	0.9	1	5695.025	3734.56844269204	FALSE	-0.118188976377953	1	-0.147582024129715	8.04673550747281	0.9
10	49 orphans	6 thieves	quantity	1	38	1	simplified	impersonal	d	Yes	8.89713534229332	N/A	-1	0.0894549180327869	0.0262557863732618	0.178909836065574	1	0.2	1	5695.025	3734.56844269204	TRUE	0.821090163934426	1	0.268158440426799	8.62897690186652	0.2
10	49 celebrities	a police officer	quantity	1	110	1	simplified	impersonal	d	Yes	8.10772006191053	N/A	-1	0.575958955223881	0.0415356438917291	0.848082089552239	-1	0.9	0	5695.025	3734.56844269204	FALSE	-0.151917910447761	0	0.064359485737894	8.04336057617264	0.9
10	an adult	51 convicts	quantity	1	22	1	simplified	impersonal	k	No	9.23844180208706	N/A	-1	0.768629464285714	0.0396854900400699	0.462741071428571	1	0.5	0	5695.025	3734.56844269204	TRUE	0.537258928571429	0	0.299551143245338	8.93889065884172	0.5
10	a rapist	a college student	quantity	1	17	1	simplified	impersonal	k	No	8.91918561004543	N/A	-1	0.0448629032258065	0.0174214038850436	0.0897258064516129	-1	0.1	1	5695.025	3734.56844269204	FALSE	-0.910274193548387	1	-0.141049370077749	9.06023498012318	0.1
10	53 adults	50 thieves	quantity	1	2	1	simplified	impersonal	k	No	9.46900549535747	N/A	-1	0.833161290322581	0.0332480675828511	0.333677419354839	1	0.4	0	5695.025	3734.56844269204	TRUE	0.666322580645161	0	-0.0462722440348209	9.51527773939229	0.4
10	3 pedophiles	a police officer	quantity	1	19	1	simplified	impersonal	k	No	8.87080344398212	N/A	-1	0.914383720930233	0.0239807421153658	0.171232558139535	-1	0.2	1	5695.025	3734.56844269204	FALSE	-0.828767441860465	1	-0.139292817339443	9.01009626132157	0.2
10	53 rapists	6 police officers	quantity	1	66	1	simplified	impersonal	k	No	7.96032362914884	N/A	-1	0.904682203389831	0.0259422610032738	0.190635593220339	-1	0.2	1	5695.025	3734.56844269204	FALSE	-0.809364406779661	1	-0.330227566797713	8.29055119594655	0.2
10	47 college students	8 terrorists	quantity	1	54	1	simplified	impersonal	d	Yes	7.95155933115525	N/A	-1	0.0481694214876033	0.0197511139493507	0.0963388429752066	1	0.1	1	5695.025	3734.56844269204	TRUE	0.903661157024793	1	-0.459164338655203	8.41072366981046	0.1
10	a convict	47 pedophiles	quantity	1	59	1	simplified	impersonal	d	Yes	8.38935981990635	N/A	-1	0.73177519379845	0.0367508700743447	0.536449612403101	1	0.6	1	5695.025	3734.56844269204	TRUE	0.463550387596899	1	0.0325712591550307	8.35678856075132	0.6
10	51 assassins	an addict	quantity	1	86	1	simplified	impersonal	k	No	8.41183267575841	N/A	-1	0.614599173553719	0.0436989175166539	0.770801652892562	-1	0.8	1	5695.025	3734.56844269204	FALSE	-0.229198347107438	1	0.263054487654475	8.14877818810394	0.8
100	a soldier	a convict	quantity	1	75	1	simplified	impersonal	d	Yes	9.03646306196489	N/A	-1	0.860315384615385	0.0299589338133056	0.279369230769231	1	0.3	1	4468.03361344538	3288.74703597847	TRUE	0.720630769230769	1	0.871980109330512	8.16448295263438	0.3
100	an addict	7 assassins	quantity	1	30	1	simplified	impersonal	d	Yes	8.17131687471973	N/A	-1	0.680780701754386	0.0435367519789039	0.638438596491228	1	0.7	1	4468.03361344538	3288.74703597847	TRUE	0.361561403508772	1	-0.00301450426674066	8.17433137898647	0.7
100	5 celebrities	47 pedophiles	quantity	1	87	1	simplified	impersonal	d	Yes	8.10198073185319	N/A	-1	0.892265873015873	0.0264665828112523	0.215468253968254	1	0.3	1	4468.03361344538	3288.74703597847	TRUE	0.784531746031746	1	-0.0624986871205717	8.16447941897376	0.3
100	7 convicts	7 assassins	quantity	1	97	1	simplified	impersonal	d	Yes	8.49739856408806	N/A	-1	0.567380341880342	0.0426118170274671	0.865239316239316	1	0.9	1	4468.03361344538	3288.74703597847	TRUE	0.134760683760684	1	0.332919560495208	8.16447900359285	0.9
100	8 billionaires	7 convicts	quantity	1	18	1	simplified	impersonal	d	Yes	8.66181288102618	N/A	-1	0.7670234375	0.0387452386144754	0.465953125	1	0.5	1	4468.03361344538	3288.74703597847	TRUE	0.534046875	1	0.418476977039393	8.24333590398679	0.5
100	5 gang members	4 nuns	quantity	1	93	1	simplified	impersonal	k	No	7.65822752616135	N/A	-1	0.266259689922481	0.038772486461452	0.532519379844961	-1	0.6	1	4468.03361344538	3288.74703597847	FALSE	-0.467480620155039	1	-0.506251566614673	8.16447909277603	0.6
100	a pedophile	a rapist	quantity	1	48	1	simplified	impersonal	k	No	8.27154837475551	N/A	-1	0.486396153846154	0.0353178617732724	0.972792307692308	-1	1	1	4468.03361344538	3288.74703597847	FALSE	-0.027207692307692	1	0.106634347464995	8.16491402729052	1
100	49 celebrities	8 terrorists	quantity	1	102	1	simplified	impersonal	d	Yes	8.17244681834278	N/A	-1	0.11038188976378	0.0257193329274193	0.220763779527559	1	0.3	1	4468.03361344538	3288.74703597847	TRUE	0.779236220472441	1	0.0079678664272933	8.16447895191549	0.3
100	6 addicts	4 soldiers	quantity	1	68	1	simplified	impersonal	k	No	7.77022320415879	N/A	-1	0.756440476190476	0.0377237263053951	0.487119047619048	-1	0.5	1	4468.03361344538	3288.74703597847	FALSE	-0.512880952380952	1	-0.394269296845673	8.16449250100446	0.5
100	a billionaire	6 police officers	quantity	1	23	1	simplified	impersonal	k	No	7.9707403900071	N/A	-1	0.411337719298246	0.0455254951070934	0.822675438596491	-1	0.9	1	4468.03361344538	3288.74703597847	FALSE	-0.177324561403509	1	-0.226887273681199	8.19762766368829	0.9
100	53 adults	4 nuns	quantity	1	108	1	simplified	impersonal	k	No	7.59890045687141	N/A	-1	0.363244	0.0403974803721769	0.726488	1	0.8	0	4468.03361344538	3288.74703597847	TRUE	0.273512	0	-0.565578470813608	8.16447892768502	0.8
100	a nun	an orphan	quantity	1	113	1	simplified	impersonal	k	No	7.69848278788095	N/A	-1	0.667331967213115	0.0409166322500534	0.665336065573771	-1	0.7	1	4468.03361344538	3288.74703597847	FALSE	-0.334663934426229	1	-0.465996132125513	8.16447892000646	0.7
100	48 congressmen	a judge	quantity	1	29	1	simplified	impersonal	d	Yes	8.54012816269873	N/A	-1	0.519361788617886	0.0444598109272121	0.961276422764228	-1	1	0	4468.03361344538	3288.74703597847	FALSE	-0.038723577235772	0	0.363932165695356	8.17619599700338	1
100	3 college students	53 adults	quantity	1	60	1	simplified	impersonal	k	No	8.04366335239394	N/A	-1	0.382418604651163	0.0413962146011668	0.764837209302326	-1	0.8	1	4468.03361344538	3288.74703597847	FALSE	-0.235162790697674	1	-0.120869925442449	8.16453327783639	0.8
100	50 thieves	an elderly person	quantity	1	42	1	simplified	impersonal	k	No	8.19035440376326	N/A	-1	0.829789915966387	0.0334616644933673	0.340420168067227	-1	0.4	1	4468.03361344538	3288.74703597847	FALSE	-0.659579831932773	1	0.0246445133747351	8.16570989038853	0.4
100	a pedophile	an orphan	quantity	1	49	1	simplified	impersonal	k	No	8.48301573961465	N/A	-1	0.0330934959349594	0.0158224987034368	0.0661869918699187	-1	0.1	1	4468.03361344538	3288.74703597847	FALSE	-0.933813008130081	1	0.318170954753725	8.16484478486093	0.1
100	52 billionaires	53 rapists	quantity	1	92	1	simplified	impersonal	d	Yes	8.11042723757502	N/A	-1	0.123599173553719	0.0286023822535049	0.247198347107438	1	0.3	1	4468.03361344538	3288.74703597847	TRUE	0.752801652892562	1	-0.0540518889522215	8.16447912652725	0.3
100	50 addicts	48 homeless adults	quantity	1	7	1	simplified	impersonal	k	No	8.22817689595132	N/A	-1	0.640668032786885	0.0416930729831105	0.71866393442623	-1	0.8	1	4468.03361344538	3288.74703597847	FALSE	-0.28133606557377	1	-0.467016448970234	8.69519334492155	0.8
100	4 homeless adults	a college student	quantity	1	88	1	simplified	impersonal	k	No	8.93734984826739	N/A	-1	0.498909482758621	0.0456373916466988	0.997818965517241	1	1	0	4468.03361344538	3288.74703597847	TRUE	0.00218103448275897	0	0.772870509583827	8.16447933868356	1
100	49 orphans	a congressman	quantity	1	99	1	simplified	impersonal	d	Yes	8.10651451625519	N/A	-1	0.228455752212389	0.0383702662558443	0.456911504424779	1	0.5	1	4468.03361344538	3288.74703597847	TRUE	0.543088495575221	1	-0.0579644612197825	8.16447897747497	0.5
100	5 gang members	6 elderly people	quantity	1	84	1	simplified	impersonal	k	No	7.78030308790837	N/A	-1	0.159769230769231	0.0310176122515028	0.319538461538462	-1	0.4	1	4468.03361344538	3288.74703597847	FALSE	-0.680461538461538	1	-0.384176675154705	8.16447976306308	0.4
100	a college student	9 adults	quantity	1	13	1	simplified	impersonal	k	No	7.96485088744731	N/A	-1	0.470830578512397	0.0437629800976994	0.941661157024793	-1	1	1	4468.03361344538	3288.74703597847	FALSE	-0.058338842975207	1	-0.387219563363016	8.35207045081033	1
100	50 addicts	48 congressmen	quantity	1	19	1	simplified	impersonal	k	No	8.31287139434261	N/A	-1	0.551425196850394	0.0444619976724141	0.897149606299213	-1	0.9	1	4468.03361344538	3288.74703597847	FALSE	-0.102850393700787	1	0.0820845325469026	8.23078686179571	0.9
100	8 billionaires	a police officer	quantity	1	43	1	simplified	impersonal	k	No	8.0452677166078	N/A	-1	0.537621323529412	0.0430617987719341	0.924757352941177	-1	1	1	4468.03361344538	3288.74703597847	FALSE	-0.075242647058823	1	-0.120246280312935	8.16551399692074	1
100	50 thieves	48 congressmen	quantity	1	65	1	simplified	impersonal	k	No	8.92478936053336	N/A	-1	0.288444	0.0386765399013244	0.576888	-1	0.6	1	4468.03361344538	3288.74703597847	FALSE	-0.423112	1	0.760287593604259	8.1645017669291	0.6
100	4 homeless adults	5 orphans	quantity	1	41	1	simplified	impersonal	k	No	9.00724451596575	N/A	-1	0.557233333333333	0.0448008544673587	0.885533333333333	-1	0.9	1	4468.03361344538	3288.74703597847	FALSE	-0.114466666666667	1	0.84130165849322	8.16594285747253	0.9
100	9 judges	47 pedophiles	quantity	1	70	1	simplified	impersonal	d	Yes	7.89543600694297	N/A	-1	0.899043103448276	0.0271495579819916	0.201913793103448	1	0.3	1	4468.03361344538	3288.74703597847	TRUE	0.798086206896552	1	-0.269052513891264	8.16448852083423	0.3
100	52 terrorists	6 addicts	quantity	1	4	1	simplified	impersonal	k	No	9.36013873706458	N/A	-1	0.781668032786885	0.0362992888178696	0.43666393442623	-1	0.5	1	4468.03361344538	3288.74703597847	FALSE	-0.56333606557377	1	0.303002597109462	9.05713613995512	0.5
100	49 astronauts	7 assassins	quantity	1	5	1	simplified	impersonal	d	Yes	9.17699039229463	N/A	-1	0.137192307692308	0.0308173867563743	0.274384615384615	1	0.3	1	4468.03361344538	3288.74703597847	TRUE	0.725615384615385	1	0.261908789917614	8.91508160237701	0.3
100	49 astronauts	50 police officers	quantity	1	76	1	simplified	impersonal	k	No	8.36730010184162	N/A	-1	0.467455752212389	0.0459859884755287	0.934911504424779	1	1	0	4468.03361344538	3288.74703597847	TRUE	0.065088495575221	0	0.202817791832578	8.16448231000904	1
100	an adult	5 astronauts	quantity	1	46	1	simplified	impersonal	k	No	8.62101252005523	N/A	-1	0.47185593220339	0.0447878669153863	0.94371186440678	-1	1	1	4468.03361344538	3288.74703597847	FALSE	-0.05628813559322	1	0.455918214631145	8.16509430542409	1
100	a thief	6 thieves	quantity	1	104	1	simplified	impersonal	d	Yes	8.33302993974291	N/A	-1	0.4844375	0.0432974121459635	0.968875	-1	1	0	4468.03361344538	3288.74703597847	FALSE	-0.031125	0	0.168550998806479	8.16447894093643	1
100	a nun	a judge	quantity	1	58	1	simplified	impersonal	d	Yes	8.52416880515266	N/A	-1	0.513987804878049	0.0448177088377524	0.972024390243903	-1	1	0	4468.03361344538	3288.74703597847	FALSE	-0.027975609756097	0	0.359613003201032	8.16455580195163	1
100	4 soldiers	48 nuns	quantity	1	61	1	simplified	impersonal	k	No	8.92319149068606	N/A	-1	0.640319672131147	0.0424509147606084	0.719360655737705	1	0.8	0	4468.03361344538	3288.74703597847	TRUE	0.280639344262295	0	0.758666864062283	8.16452462662378	0.8
100	a pedophile	5 celebrities	quantity	1	85	1	simplified	impersonal	k	No	7.64730883235624	N/A	-1	0.0778307692307692	0.0228578135306664	0.155661538461539	-1	0.2	1	4468.03361344538	3288.74703597847	FALSE	-0.844338461538461	1	-0.517170795659398	8.16447962801564	0.2
100	a congressman	a convict	quantity	1	83	1	simplified	impersonal	d	Yes	8.26513562993738	N/A	-1	0.676483333333333	0.0413390658192375	0.647033333333333	1	0.7	1	4468.03361344538	3288.74703597847	TRUE	0.352966666666667	1	0.100655706268601	8.16447992366878	0.7
100	a mentor	4 nuns	quantity	1	6	1	simplified	impersonal	k	No	8.81774212957484	N/A	-1	0.565616	0.0431590923358132	0.868768	1	0.9	0	4468.03361344538	3288.74703597847	TRUE	0.131232	0	0.0221089724599963	8.79563315711485	0.9
100	53 adults	48 nuns	quantity	1	50	1	simplified	impersonal	d	Yes	8.48404997282298	N/A	-1	0.607226890756303	0.0446487678777185	0.785546218487395	1	0.8	1	4468.03361344538	3288.74703597847	TRUE	0.214453781512605	1	0.319263411378939	8.16478656144404	0.8
100	8 terrorists	a homeless adult	quantity	1	73	1	simplified	impersonal	k	No	7.84698098213879	N/A	-1	0.91565	0.0223613548989056	0.1687	-1	0.2	1	4468.03361344538	3288.74703597847	FALSE	-0.8313	1	-0.317503643621405	8.16448462576019	0.2
100	a college student	6 police officers	quantity	1	35	1	simplified	impersonal	k	No	7.91607809630279	N/A	-1	0.471320833333333	0.0467672450910662	0.942641666666667	-1	1	1	4468.03361344538	3288.74703597847	FALSE	-0.057358333333333	1	-0.252542453248027	8.16862054955081	1
100	5 mentors	a gang member	quantity	1	11	1	simplified	impersonal	d	Yes	8.44934252450806	N/A	-1	0.12648275862069	0.030897400506162	0.252965517241379	1	0.3	1	4468.03361344538	3288.74703597847	TRUE	0.747034482758621	1	0.0195482100207052	8.42979431448736	0.3
100	50 police officers	a gang member	quantity	1	25	1	simplified	impersonal	d	Yes	8.65049955872446	N/A	-1	0.157892857142857	0.03224028226608	0.315785714285714	1	0.4	1	4468.03361344538	3288.74703597847	TRUE	0.684214285714286	1	0.462582785799876	8.18791677292459	0.4
100	5 gang members	8 terrorists	quantity	1	2	1	simplified	impersonal	d	Yes	9.32420462812523	N/A	-1	0.2739453125	0.0372944096305185	0.547890625	1	0.6	1	4468.03361344538	3288.74703597847	TRUE	0.452109375	1	-0.102781718550496	9.42698634667573	0.6
100	a pedophile	a thief	quantity	1	33	1	simplified	impersonal	k	No	7.97831096986772	N/A	-1	0.297306451612903	0.0365177003577954	0.594612903225806	-1	0.6	1	4468.03361344538	3288.74703597847	FALSE	-0.405387096774194	1	-0.192025562659455	8.17033653252718	0.6
100	7 convicts	6 addicts	quantity	1	91	1	simplified	impersonal	k	No	7.80261806344267	N/A	-1	0.366939024390244	0.0430379741080853	0.733878048780488	-1	0.8	1	4468.03361344538	3288.74703597847	FALSE	-0.266121951219512	1	-0.361861103223348	8.16447916666602	0.8
100	9 judges	49 gang members	quantity	1	34	1	simplified	impersonal	d	Yes	8.24038511551633	N/A	-1	0.764849557522124	0.0393104159034234	0.470300884955752	1	0.5	1	4468.03361344538	3288.74703597847	TRUE	0.529699115044248	1	0.0709807450836468	8.16940437043269	0.5
100	an elderly person	50 police officers	quantity	1	81	1	simplified	impersonal	k	No	7.69484807238461	N/A	-1	0.546995454545455	0.0457385067377796	0.906009090909091	1	1	0	4468.03361344538	3288.74703597847	TRUE	0.093990909090909	0	-0.469632269433812	8.16448034181842	1
100	7 convicts	4 homeless adults	quantity	1	56	1	simplified	impersonal	k	No	8.09712193091871	N/A	-1	0.185163865546218	0.0359786465406224	0.370327731092437	-1	0.4	1	4468.03361344538	3288.74703597847	FALSE	-0.629672268907563	1	-0.0674657274522481	8.16458765837096	0.4
100	3 college students	7 convicts	quantity	1	115	1	simplified	impersonal	d	Yes	7.42773884053289	N/A	-1	0.79704296875	0.0354285053573823	0.4059140625	1	0.5	1	4468.03361344538	3288.74703597847	TRUE	0.5940859375	1	-0.736740077842227	8.16447891837512	0.5
100	49 orphans	8 terrorists	quantity	1	79	1	simplified	impersonal	d	Yes	8.03980234373648	N/A	-1	0.0327661290322581	0.0159014568286721	0.0655322580645161	1	0.1	1	4468.03361344538	3288.74703597847	TRUE	0.934467741935484	1	-0.124678589481425	8.16448093321791	0.1
100	7 assassins	9 adults	quantity	1	8	1	simplified	impersonal	k	No	8.43315919580623	N/A	-1	0.8727625	0.0296452556901595	0.254475	-1	0.3	1	4468.03361344538	3288.74703597847	FALSE	-0.745525	1	-0.177577998587102	8.61073719439333	0.3
100	3 pedophiles	47 pedophiles	quantity	1	55	1	simplified	impersonal	d	Yes	8.59877317840866	N/A	-1	0.527245833333333	0.0405232842159539	0.945508333333333	1	1	1	4468.03361344538	3288.74703597847	TRUE	0.054491666666667	1	0.43416493981678	8.16460823859188	1
100	9 judges	a police officer	quantity	1	63	1	simplified	impersonal	k	No	8.42748727833174	N/A	-1	0.61356	0.041407837531185	0.77288	-1	0.8	1	4468.03361344538	3288.74703597847	FALSE	-0.22712	1	0.262976043044135	8.16451123528761	0.8
100	a nun	51 convicts	quantity	1	20	1	simplified	impersonal	d	Yes	8.04782935745784	N/A	-1	0.724487068965517	0.0418246939458281	0.551025862068965	1	0.6	1	4468.03361344538	3288.74703597847	TRUE	0.448974137931035	1	-0.172405475484663	8.2202348329425	0.6
100	3 college students	a soldier	quantity	1	1	1	simplified	impersonal	d	Yes	9.61846859750383	N/A	-1	0.6351328125	0.0416463467191364	0.729734375	-1	0.8	0	4468.03361344538	3288.74703597847	FALSE	-0.270265625	0	-0.0474522911835482	9.66592088868738	0.8
100	a rapist	8 terrorists	quantity	1	27	1	simplified	impersonal	d	Yes	8.32869258354557	N/A	-1	0.47095703125	0.0381913334076501	0.9419140625	-1	1	0	4468.03361344538	3288.74703597847	FALSE	-0.0580859375	0	0.147641906285122	8.18105067726045	1
100	an elderly person	5 celebrities	quantity	1	74	1	simplified	impersonal	d	Yes	8.57243866564222	N/A	-1	0.670235772357724	0.0408823181963888	0.659528455284553	1	0.7	1	4468.03361344538	3288.74703597847	TRUE	0.340471544715447	1	0.407954948763102	8.16448371687911	0.7
100	5 mentors	6 police officers	quantity	1	120	1	simplified	impersonal	k	No	8.68963274835574	N/A	-1	0.527760504201681	0.0459495896574611	0.944478991596639	-1	1	1	4468.03361344538	3288.74703597847	FALSE	-0.055521008403361	1	0.52515383226284	8.1644789160929	1
100	52 billionaires	47 college students	quantity	1	103	1	simplified	impersonal	d	Yes	7.49052940206071	N/A	-1	0.402443548387097	0.044151339674005	0.804887096774194	-1	0.9	0	4468.03361344538	3288.74703597847	FALSE	-0.195112903225806	0	-0.673949543890696	8.16447894595141	0.9
100	3 pedophiles	49 gang members	quantity	1	72	1	simplified	impersonal	k	No	8.12829017160705	N/A	-1	0.355611111111111	0.0418737219259168	0.711222222222222	-1	0.8	1	4468.03361344538	3288.74703597847	FALSE	-0.288777777777778	1	-0.0361955350435768	8.16448570665063	0.8
100	an adult	6 thieves	quantity	1	64	1	simplified	impersonal	d	Yes	9.1446278286108	N/A	-1	0.864542016806723	0.0306253255383795	0.270915966386555	1	0.3	1	4468.03361344538	3288.74703597847	TRUE	0.729084033613445	1	0.980121736757027	8.16450609185377	0.3
100	4 nuns	7 assassins	quantity	1	52	1	simplified	impersonal	d	Yes	8.25452888193974	N/A	-1	0.799831932773109	0.0365807397755999	0.400336134453781	1	0.5	1	4468.03361344538	3288.74703597847	TRUE	0.599663865546219	1	0.0898324453583026	8.16469643658144	0.5
100	5 celebrities	9 adults	quantity	1	105	1	simplified	impersonal	k	No	8.08671792030391	N/A	-1	0.33215503875969	0.0412095211729977	0.66431007751938	-1	0.7	1	4468.03361344538	3288.74703597847	FALSE	-0.33568992248062	1	-0.0777610164156179	8.16447893671952	0.7
100	6 addicts	5 celebrities	quantity	1	39	1	simplified	impersonal	k	No	8.20357773693795	N/A	-1	0.55778515625	0.0423419565908712	0.8844296875	-1	0.9	1	4468.03361344538	3288.74703597847	FALSE	-0.1155703125	1	0.0370283312646649	8.16654940567329	0.9
100	49 orphans	an addict	quantity	1	26	1	simplified	impersonal	d	Yes	8.3291754420774	N/A	-1	0.148747899159664	0.0315665753072238	0.297495798319328	1	0.3	1	4468.03361344538	3288.74703597847	TRUE	0.702504201680672	1	0.144988492935102	8.1841869491423	0.3
100	a pedophile	50 elderly people	quantity	1	24	1	simplified	impersonal	k	No	8.45871626165726	N/A	-1	0.0462539682539682	0.0171768110617983	0.0925079365079365	-1	0.1	1	4468.03361344538	3288.74703597847	FALSE	-0.907492063492063	1	0.266363780997196	8.19235248066007	0.1
100	53 adults	50 police officers	quantity	1	95	1	simplified	impersonal	k	No	7.7106533235012	N/A	-1	0.578726086956522	0.0434376689567076	0.842547826086957	1	0.9	0	4468.03361344538	3288.74703597847	TRUE	0.157452173913043	0	-0.453825717030824	8.16447904053203	0.9
100	48 soldiers	49 mentors	quantity	1	10	1	simplified	impersonal	d	Yes	8.44139147799996	N/A	-1	0.651627049180328	0.0419159508161716	0.696745901639344	1	0.7	1	4468.03361344538	3288.74703597847	TRUE	0.303254098360656	1	-0.0386148288929551	8.48000630689291	0.7
100	a mentor	53 adults	quantity	1	80	1	simplified	impersonal	k	No	8.44569718971117	N/A	-1	0.423633064516129	0.0439334808320134	0.847266129032258	-1	0.9	1	4468.03361344538	3288.74703597847	FALSE	-0.152733870967742	1	0.281216577755295	8.16448061195587	0.9
100	an elderly person	6 police officers	quantity	1	78	1	simplified	impersonal	d	Yes	8.45297461908959	N/A	-1	0.526529411764706	0.0455906824923345	0.946941176470588	1	1	1	4468.03361344538	3288.74703597847	TRUE	0.053058823529412	1	0.288493303809526	8.16448131528006	1
100	50 elderly people	5 gang members	quantity	1	77	1	simplified	impersonal	d	Yes	7.72841577984104	N/A	-1	0.186182170542636	0.0332885801376707	0.372364341085271	1	0.4	1	4468.03361344538	3288.74703597847	TRUE	0.627635658914729	1	-0.436065989807949	8.16448176964899	0.4
100	a celebrity	9 adults	quantity	1	86	1	simplified	impersonal	k	No	8.43054538469057	N/A	-1	0.346775862068965	0.0431822688944483	0.693551724137931	-1	0.7	1	4468.03361344538	3288.74703597847	FALSE	-0.306448275862069	1	0.266065870231365	8.1644795144592	0.7
100	50 police officers	6 thieves	quantity	1	110	1	simplified	impersonal	d	Yes	7.56268124672188	N/A	-1	0.143230088495575	0.0318433134386857	0.28646017699115	1	0.3	1	4468.03361344538	3288.74703597847	TRUE	0.71353982300885	1	-0.601797677082369	8.16447892380425	0.3
100	52 terrorists	48 nuns	quantity	1	21	1	simplified	impersonal	k	No	7.73017479524622	N/A	-1	0.143627118644068	0.0313484639290732	0.287254237288136	-1	0.3	1	4468.03361344538	3288.74703597847	FALSE	-0.712745762711864	1	-0.481187224040581	8.2113620192868	0.3
100	8 billionaires	5 gang members	quantity	1	44	1	simplified	impersonal	d	Yes	10.0267223668708	N/A	-1	0.752477443609023	0.0364051684438369	0.495045112781955	1	0.5	1	4468.03361344538	3288.74703597847	TRUE	0.504954887218045	1	1.86137308957505	8.1653492772957	0.5
100	a thief	48 congressmen	quantity	1	106	1	simplified	impersonal	k	No	7.95014988765202	N/A	-1	0.226105691056911	0.035730383350513	0.452211382113821	-1	0.5	1	4468.03361344538	3288.74703597847	FALSE	-0.547788617886179	1	-0.214329045521661	8.16447893317368	0.5
100	53 adults	6 elderly people	quantity	1	54	1	simplified	impersonal	d	Yes	9.22945648916841	N/A	-1	0.49197619047619	0.0443284878883955	0.983952380952381	1	1	1	4468.03361344538	3288.74703597847	TRUE	0.016047619047619	1	1.06482377546713	8.16463271370129	1
100	4 soldiers	6 elderly people	quantity	1	59	1	simplified	impersonal	d	Yes	8.13211877295581	N/A	-1	0.569375	0.044440324838694	0.86125	1	0.9	1	4468.03361344538	3288.74703597847	TRUE	0.13875	1	-0.0324247933695236	8.16454356632533	0.9
100	an orphan	49 gang members	quantity	1	82	1	simplified	impersonal	d	Yes	7.82883452758809	N/A	-1	0.86474358974359	0.0316984910268506	0.27051282051282	1	0.3	1	4468.03361344538	3288.74703597847	TRUE	0.72948717948718	1	-0.335645587081668	8.16448011466976	0.3
100	an adult	9 rapists	quantity	1	14	1	simplified	impersonal	d	Yes	7.9592759601164	N/A	-1	0.950529661016949	0.0194113871007969	0.0989406779661017	1	0.1	1	4468.03361344538	3288.74703597847	TRUE	0.901059322033898	1	-0.362941790025405	8.3222177501418	0.1
100	an elderly person	47 pedophiles	quantity	1	111	1	simplified	impersonal	d	Yes	7.26403014289953	N/A	-1	0.937880341880342	0.02117401837694	0.124239316239316	1	0.2	1	4468.03361344538	3288.74703597847	TRUE	0.875760683760684	1	-0.900448779414174	8.1644789223137	0.2
100	48 soldiers	4 soldiers	quantity	1	66	1	simplified	impersonal	d	Yes	7.78904040165748	N/A	-1	0.411680327868852	0.0445202530812426	0.823360655737705	1	0.9	1	4468.03361344538	3288.74703597847	TRUE	0.176639344262295	1	-0.375457728601246	8.16449813025872	0.9
100	49 orphans	a judge	quantity	1	36	1	simplified	impersonal	d	Yes	7.40245152081824	N/A	-1	0.28666393442623	0.040781077057097	0.573327868852459	1	0.6	1	4468.03361344538	3288.74703597847	TRUE	0.426672131147541	1	-0.765509942530181	8.16796146334842	0.6
100	51 assassins	49 orphans	quantity	1	22	1	simplified	impersonal	k	No	8.28399930424853	N/A	-1	0.862872	0.0307952587903392	0.274256	-1	0.3	1	4468.03361344538	3288.74703597847	FALSE	-0.725744	1	0.0800981082085119	8.20390119604001	0.3
100	49 orphans	50 elderly people	quantity	1	57	1	simplified	impersonal	k	No	8.6159519634395	N/A	-1	0.573778225806452	0.0417797490446581	0.852443548387097	1	0.9	0	4468.03361344538	3288.74703597847	TRUE	0.147556451612903	0	0.451381610220734	8.16457035321877	0.9
100	8 terrorists	6 elderly people	quantity	1	109	1	simplified	impersonal	k	No	7.76514490293613	N/A	-1	0.042484126984127	0.0181963335254576	0.0849682539682539	-1	0.1	1	4468.03361344538	3288.74703597847	FALSE	-0.915031746031746	1	-0.399334022640764	8.1644789255769	0.1
100	a mentor	an orphan	quantity	1	90	1	simplified	impersonal	k	No	7.94307271727793	N/A	-1	0.571713114754098	0.0449244925040081	0.856573770491803	-1	0.9	1	4468.03361344538	3288.74703597847	FALSE	-0.143426229508197	1	-0.221406497123282	8.16447921440122	0.9
100	8 billionaires	53 judges	quantity	1	119	1	simplified	impersonal	k	No	8.08301991917133	N/A	-1	0.51902962962963	0.0413243464688324	0.961940740740741	1	1	0	4468.03361344538	3288.74703597847	TRUE	0.038059259259259	0	-0.0814589972348099	8.16447891640614	1
100	a mentor	3 pedophiles	quantity	1	37	1	simplified	impersonal	d	Yes	7.63867982387611	N/A	-1	0.926315573770492	0.0228391658388458	0.147368852459016	1	0.2	1	4468.03361344538	3288.74703597847	TRUE	0.852631147540984	1	-0.528727438082404	8.16740726195852	0.2
100	a pedophile	a judge	quantity	1	118	1	simplified	impersonal	k	No	8.01598781102724	N/A	-1	0.0467983870967742	0.0176979054222527	0.0935967741935484	-1	0.1	1	4468.03361344538	3288.74703597847	FALSE	-0.906403225806452	1	-0.148491105751424	8.16447891677866	0.1
100	53 adults	51 convicts	quantity	1	67	1	simplified	impersonal	d	Yes	7.93666015522543	N/A	-1	0.807991304347826	0.0353068374844197	0.384017391304348	1	0.4	1	4468.03361344538	3288.74703597847	TRUE	0.615982608695652	1	-0.227834917090695	8.16449507231612	0.4
100	an addict	9 rapists	quantity	1	101	1	simplified	impersonal	d	Yes	7.66622192566273	N/A	-1	0.82807264957265	0.0329606400676436	0.343854700854701	1	0.4	1	4468.03361344538	3288.74703597847	TRUE	0.656145299145299	1	-0.498257033345565	8.16447895900829	0.4
100	5 gang members	49 gang members	quantity	1	117	1	simplified	impersonal	d	Yes	7.14361760270412	N/A	-1	0.558040322580645	0.0422634935995205	0.88391935483871	1	0.9	1	4468.03361344538	3288.74703597847	TRUE	0.11608064516129	1	-1.02086131451756	8.16447891722168	0.9
100	a terrorist	50 elderly people	quantity	1	47	1	simplified	impersonal	k	No	7.43955930913332	N/A	-1	0.0523114754098361	0.018313882292007	0.104622950819672	-1	0.2	1	4468.03361344538	3288.74703597847	FALSE	-0.895377049180328	1	-0.725437064991396	8.16499637412472	0.2
100	50 thieves	48 homeless adults	quantity	1	31	1	simplified	impersonal	k	No	8.46926265765869	N/A	-1	0.2166625	0.0382887971454832	0.433325	-1	0.5	1	4468.03361344538	3288.74703597847	FALSE	-0.566675	1	0.296499167505084	8.1727634901536	0.5
100	8 billionaires	47 college students	quantity	1	38	1	simplified	impersonal	k	No	7.94449216393216	N/A	-1	0.399496031746032	0.0431260265905428	0.798992063492064	-1	0.8	1	4468.03361344538	3288.74703597847	FALSE	-0.201007936507936	1	-0.222449090424519	8.16694125435668	0.8
100	49 orphans	49 celebrities	quantity	1	9	1	simplified	impersonal	d	Yes	8.76013937002663	N/A	-1	0.691688976377953	0.0403813971996136	0.616622047244094	1	0.7	1	4468.03361344538	3288.74703597847	TRUE	0.383377952755906	1	0.220418251891173	8.53972111813545	0.7
100	a billionaire	6 addicts	quantity	1	114	1	simplified	impersonal	k	No	7.78322401633604	N/A	-1	0.619017543859649	0.0458673945602993	0.761964912280702	1	0.8	0	4468.03361344538	3288.74703597847	TRUE	0.238035087719298	0	-0.381254902784242	8.16447891912028	0.8
100	4 homeless adults	50 police officers	quantity	1	51	1	simplified	impersonal	k	No	8.25634777291802	N/A	-1	0.472522522522523	0.0456892850881999	0.945045045045045	-1	1	1	4468.03361344538	3288.74703597847	FALSE	-0.0549549549549549	1	0.0916101694076144	8.1647376035104	1
100	an adult	53 judges	quantity	1	62	1	simplified	impersonal	k	No	8.50835424274903	N/A	-1	0.538909448818898	0.0440439219804255	0.922181102362205	1	1	0	4468.03361344538	3288.74703597847	TRUE	0.077818897637795	0	0.343836890612323	8.16451735213671	1
100	a billionaire	a convict	quantity	1	100	1	simplified	impersonal	d	Yes	8.26152644839647	N/A	-1	0.758512396694215	0.0388299390601964	0.48297520661157	1	0.5	1	4468.03361344538	3288.74703597847	TRUE	0.51702479338843	1	0.097047480953032	8.16447896744344	0.5
100	4 homeless adults	a billionaire	quantity	1	28	1	simplified	impersonal	d	Yes	8.70814407490825	N/A	-1	0.425868181818182	0.0454371426782232	0.851736363636364	1	0.9	1	4468.03361344538	3288.74703597847	TRUE	0.148263636363636	1	0.529730573528232	8.17841350138001	0.9
100	7 convicts	48 homeless adults	quantity	1	12	1	simplified	impersonal	k	No	8.67846133901236	N/A	-1	0.213731092436975	0.0378075490876729	0.42746218487395	-1	0.5	1	4468.03361344538	3288.74703597847	FALSE	-0.57253781512605	1	0.290888445456815	8.38757289355554	0.5
102	50 elderly people	4 homeless adults	quantity	1	38	1	simplified	impersonal	d	Yes	8.14148104145742	N/A	-1	0.437079166666667	0.044988304494516	0.874158333333333	1	0.9	1	4337.42016806723	4390.22881820526	TRUE	0.125841666666667	1	0.000635487197222062	8.1408455542602	0.9
102	48 homeless adults	53 judges	quantity	1	92	1	simplified	impersonal	k	No	8.25945819533241	N/A	-1	0.536690476190476	0.0458880497288531	0.926619047619048	1	1	0	4337.42016806723	4390.22881820526	TRUE	0.073380952380952	0	0.118638769029127	8.14081942630328	1
102	7 convicts	9 judges	quantity	1	9	1	simplified	impersonal	k	No	7.86211221166275	N/A	-1	0.254636752136752	0.0383243512993578	0.509273504273504	-1	0.6	1	4337.42016806723	4390.22881820526	FALSE	-0.490726495726496	1	-0.356762564199847	8.2188747758626	0.6
102	8 billionaires	a college student	quantity	1	101	1	simplified	impersonal	d	Yes	7.86940171257709	N/A	-1	0.542436	0.0444870880706414	0.915128	-1	1	0	4337.42016806723	4390.22881820526	FALSE	-0.0848719999999999	0	-0.2714177137181	8.14081942629519	1
102	an orphan	an adult	quantity	1	72	1	simplified	impersonal	d	Yes	7.79646924308606	N/A	-1	0.585470338983051	0.0436473309757683	0.829059322033898	1	0.9	1	4337.42016806723	4390.22881820526	TRUE	0.170940677966102	1	-0.344350185409391	8.14081942849545	0.9
102	49 mentors	6 thieves	quantity	1	35	1	simplified	impersonal	d	Yes	7.90617884039481	N/A	-1	0.148120967741935	0.0308913961296292	0.296241935483871	1	0.3	1	4337.42016806723	4390.22881820526	TRUE	0.703758064516129	1	-0.234700374596611	8.14087921499143	0.3
102	a billionaire	49 mentors	quantity	1	15	1	simplified	impersonal	k	No	7.61134771740362	N/A	-1	0.424517094017094	0.0452623638386025	0.849034188034188	-1	0.9	1	4337.42016806723	4390.22881820526	FALSE	-0.150965811965812	1	-0.544378209151093	8.15572592655471	0.9
102	51 convicts	48 homeless adults	quantity	1	51	1	simplified	impersonal	k	No	7.85825418218603	N/A	-1	0.254518018018018	0.0407676075689905	0.509036036036036	-1	0.6	1	4337.42016806723	4390.22881820526	FALSE	-0.490963963963964	1	-0.282565967234139	8.14082014942017	0.6
102	a rapist	4 soldiers	quantity	1	47	1	simplified	impersonal	k	No	7.57250298502038	N/A	-1	0.0316908396946565	0.0158212314786136	0.0633816793893129	-1	0.1	1	4337.42016806723	4390.22881820526	FALSE	-0.936618320610687	1	-0.568318621819434	8.14082160683982	0.1
102	an addict	a celebrity	quantity	1	57	1	simplified	impersonal	k	No	8.32263709695394	N/A	-1	0.642804545454545	0.0440033873197993	0.714390909090909	-1	0.8	1	4337.42016806723	4390.22881820526	FALSE	-0.285609090909091	1	0.181817532561666	8.14081956439227	0.8
102	50 addicts	a convict	quantity	1	18	1	simplified	impersonal	k	No	8.22496747891458	N/A	-1	0.374364661654135	0.0421510814334493	0.748729323308271	1	0.8	0	4337.42016806723	4390.22881820526	TRUE	0.251270676691729	0	0.077633835921489	8.14733364299309	0.8
102	an astronaut	6 elderly people	quantity	1	29	1	simplified	impersonal	d	Yes	10.115691483812	N/A	-1	0.36978125	0.0422420881722694	0.7395625	-1	0.8	0	4337.42016806723	4390.22881820526	FALSE	-0.2604375	0	1.9745589841897	8.14113249962226	0.8
102	3 pedophiles	a gang member	quantity	1	64	1	simplified	impersonal	k	No	7.63916117165917	N/A	-1	0.66627731092437	0.0421504515642579	0.667445378151261	-1	0.7	1	4337.42016806723	4390.22881820526	FALSE	-0.332554621848739	1	-0.501658274648732	8.1408194463079	0.7
102	an orphan	a gang member	quantity	1	112	1	simplified	impersonal	d	Yes	7.76556908109732	N/A	-1	0.889457983193277	0.0289180921463377	0.221084033613445	1	0.3	1	4337.42016806723	4390.22881820526	TRUE	0.778915966386555	1	-0.375250345197172	8.14081942629449	0.3
102	49 celebrities	48 nuns	quantity	1	88	1	simplified	impersonal	k	No	8.3466420902212	N/A	-1	0.458180327868852	0.0473291897191544	0.916360655737705	-1	1	1	4337.42016806723	4390.22881820526	FALSE	-0.083639344262295	1	0.205822663900125	8.14081942632107	1
102	an adult	a gang member	quantity	1	115	1	simplified	impersonal	d	Yes	7.96970358327866	N/A	-1	0.854567796610169	0.0324170113750088	0.290864406779661	1	0.3	1	4337.42016806723	4390.22881820526	TRUE	0.709135593220339	1	-0.171115843015813	8.14081942629447	0.3
102	an assassin	47 pedophiles	quantity	1	26	1	simplified	impersonal	k	No	9.73861290934589	N/A	-1	0.607657258064516	0.0390442861614113	0.784685483870968	1	0.8	0	4337.42016806723	4390.22881820526	TRUE	0.215314516129032	0	1.59707707648127	8.14153583286462	0.8
102	48 soldiers	4 nuns	quantity	1	74	1	simplified	impersonal	d	Yes	7.83676478326407	N/A	-1	0.259270833333333	0.0389822575616016	0.518541666666667	1	0.6	1	4337.42016806723	4390.22881820526	TRUE	0.481458333333333	1	-0.304054644297874	8.14081942756194	0.6
102	an elderly person	48 nuns	quantity	1	22	1	simplified	impersonal	k	No	7.45414107814668	N/A	-1	0.582430434782609	0.0438205871074367	0.835139130434783	1	0.9	0	4337.42016806723	4390.22881820526	TRUE	0.164860869565217	0	-0.688838632305567	8.14297971045225	0.9
102	3 college students	51 convicts	quantity	1	103	1	simplified	impersonal	d	Yes	7.67971363996637	N/A	-1	0.758429166666667	0.0388782676669127	0.483141666666667	1	0.5	1	4337.42016806723	4390.22881820526	TRUE	0.516858333333333	1	-0.461105786328505	8.14081942629488	0.5
102	5 mentors	48 congressmen	quantity	1	77	1	simplified	impersonal	k	No	7.81035268372429	N/A	-1	0.6061125	0.0431539108359498	0.787775	1	0.8	0	4337.42016806723	4390.22881820526	TRUE	0.212225	0	-0.330466743124061	8.14081942684835	0.8
102	50 police officers	6 police officers	quantity	1	13	1	simplified	impersonal	d	Yes	8.02878116248715	N/A	-1	0.513308695652174	0.0455691020846794	0.973382608695652	-1	1	0	4337.42016806723	4390.22881820526	FALSE	-0.026617391304348	0	-0.137923453524463	8.16670461601161	1
102	8 billionaires	6 thieves	quantity	1	24	1	simplified	impersonal	d	Yes	7.81035268372429	N/A	-1	0.184322834645669	0.0329414615036353	0.368645669291339	1	0.4	1	4337.42016806723	4390.22881820526	TRUE	0.631354330708661	1	-0.331710785079112	8.1420634688034	0.4
102	a thief	4 nuns	quantity	1	44	1	simplified	impersonal	k	No	7.75747876658418	N/A	-1	0.179235772357724	0.0342377972099682	0.358471544715447	-1	0.4	1	4337.42016806723	4390.22881820526	FALSE	-0.641528455284553	1	-0.383345649458323	8.1408244160425	0.4
102	49 astronauts	a soldier	quantity	1	63	1	simplified	impersonal	d	Yes	8.38731227056172	N/A	-1	0.548260330578512	0.0451604683896257	0.903479338842975	-1	1	0	4337.42016806723	4390.22881820526	FALSE	-0.096520661157025	0	0.246492817894245	8.14081945266747	1
102	48 soldiers	a soldier	quantity	1	39	1	simplified	impersonal	d	Yes	7.81480342948936	N/A	-1	0.412512711864407	0.0433358766419148	0.825025423728814	1	0.9	1	4337.42016806723	4390.22881820526	TRUE	0.174974576271186	1	-0.326035824296389	8.14083925378575	0.9
102	53 judges	6 police officers	quantity	1	99	1	simplified	impersonal	k	No	7.73193072194849	N/A	-1	0.577365384615385	0.0434815445075275	0.845269230769231	-1	0.9	1	4337.42016806723	4390.22881820526	FALSE	-0.154730769230769	1	-0.408888704347246	8.14081942629573	0.9
102	a soldier	4 homeless adults	quantity	1	60	1	simplified	impersonal	d	Yes	7.88570539124302	N/A	-1	0.599567226890756	0.0448611200675083	0.800865546218487	1	0.9	1	4337.42016806723	4390.22881820526	TRUE	0.199134453781513	1	-0.255114095400884	8.1408194866439	0.9
102	4 homeless adults	6 addicts	quantity	1	46	1	simplified	impersonal	k	No	8.96890555068972	N/A	-1	0.668	0.0419471705920224	0.664	1	0.7	0	4337.42016806723	4390.22881820526	TRUE	0.336	0	0.828083250949819	8.1408222997399	0.7
102	53 adults	an adult	quantity	1	36	1	simplified	impersonal	d	Yes	8.25919936266628	N/A	-1	0.415714876033058	0.0443310598876796	0.831429752066116	1	0.9	1	4337.42016806723	4390.22881820526	TRUE	0.168570247933884	1	0.118334565068137	8.14086479759814	0.9
102	a terrorist	50 thieves	quantity	1	116	1	simplified	impersonal	k	No	8.08147504013705	N/A	-1	0.338301652892562	0.0402218303320933	0.676603305785124	-1	0.7	1	4337.42016806723	4390.22881820526	FALSE	-0.323396694214876	1	-0.059344386157413	8.14081942629447	0.7
102	5 mentors	a gang member	quantity	1	109	1	simplified	impersonal	d	Yes	7.81963630236759	N/A	-1	0.12648275862069	0.030897400506162	0.252965517241379	1	0.3	1	4337.42016806723	4390.22881820526	TRUE	0.747034482758621	1	-0.321183123926942	8.14081942629453	0.3
102	a thief	a congressman	quantity	1	10	1	simplified	impersonal	k	No	8.09193345597989	N/A	-1	0.24845045045045	0.0390264631089853	0.496900900900901	-1	0.5	1	4337.42016806723	4390.22881820526	FALSE	-0.503099099099099	1	-0.108119122220014	8.20005257819991	0.5
102	6 police officers	48 nuns	quantity	1	1	1	simplified	impersonal	d	Yes	8.79285328864069	N/A	-1	0.556710084033613	0.0459898463778781	0.886579831932773	1	0.9	1	4337.42016806723	4390.22881820526	TRUE	0.113420168067227	1	-0.0577159958318951	8.85056928447259	0.9
102	a nun	51 convicts	quantity	1	118	1	simplified	impersonal	d	Yes	8.52892411429194	N/A	-1	0.724487068965517	0.0418246939458281	0.551025862068965	1	0.6	1	4337.42016806723	4390.22881820526	TRUE	0.448974137931035	1	0.388104687997476	8.14081942629446	0.6
102	9 judges	6 thieves	quantity	1	73	1	simplified	impersonal	d	Yes	7.90322680873073	N/A	-1	0.189754310344828	0.0371272255844867	0.379508620689655	1	0.4	1	4337.42016806723	4390.22881820526	TRUE	0.620491379310345	1	-0.237592619233969	8.1408194279647	0.4
102	a pedophile	48 homeless adults	quantity	1	68	1	simplified	impersonal	k	No	8.09925056179696	N/A	-1	0.0592172131147541	0.0217713692524121	0.118434426229508	-1	0.2	1	4337.42016806723	4390.22881820526	FALSE	-0.881565573770492	1	-0.0415688711344746	8.14081943293144	0.2
102	49 celebrities	4 nuns	quantity	1	11	1	simplified	impersonal	k	No	8.76233304060234	N/A	-1	0.505046875	0.0439485792739461	0.98990625	-1	1	1	4337.42016806723	4390.22881820526	FALSE	-0.01009375	1	0.576563892039443	8.1857691485629	1
102	53 judges	a homeless adult	quantity	1	67	1	simplified	impersonal	d	Yes	7.77233157516961	N/A	-1	0.457665441176471	0.0410555734836536	0.915330882352941	1	1	1	4337.42016806723	4390.22881820526	TRUE	0.084669117647059	1	-0.368487859870821	8.14081943504043	1
102	51 convicts	a convict	quantity	1	89	1	simplified	impersonal	d	Yes	8.1958853913148	N/A	-1	0.497356557377049	0.0434823396666045	0.994713114754098	1	1	1	4337.42016806723	4390.22881820526	TRUE	0.00528688524590204	1	0.0550659650001428	8.14081942631465	1
102	a nun	a college student	quantity	1	52	1	simplified	impersonal	d	Yes	8.6769282495374	N/A	-1	0.60448347107438	0.0442894735759424	0.79103305785124	-1	0.8	0	4337.42016806723	4390.22881820526	FALSE	-0.20896694214876	0	0.536108274491122	8.14081997504628	0.8
102	49 celebrities	51 convicts	quantity	1	83	1	simplified	impersonal	d	Yes	7.68616230349291	N/A	-1	0.69271186440678	0.0428821133654755	0.614576271186441	1	0.7	1	4337.42016806723	4390.22881820526	TRUE	0.385423728813559	1	-0.454657122907327	8.14081942640023	0.7
102	6 addicts	5 celebrities	quantity	1	53	1	simplified	impersonal	k	No	8.36194190614495	N/A	-1	0.55778515625	0.0423419565908712	0.8844296875	-1	0.9	1	4337.42016806723	4390.22881820526	FALSE	-0.1155703125	1	0.221122063424197	8.14081984272075	0.9
102	a convict	9 adults	quantity	1	27	1	simplified	impersonal	k	No	7.78030308790837	N/A	-1	0.168212121212121	0.0316362246953066	0.336424242424242	-1	0.4	1	4337.42016806723	4390.22881820526	FALSE	-0.663575757575758	1	-0.361059991312261	8.14136307922063	0.4
102	a billionaire	a college student	quantity	1	70	1	simplified	impersonal	k	No	8.43511508038063	N/A	-1	0.433063636363636	0.0457364368569209	0.866127272727273	-1	0.9	1	4337.42016806723	4390.22881820526	FALSE	-0.133872727272727	1	0.294295650264139	8.14081943011649	0.9
102	52 billionaires	5 orphans	quantity	1	114	1	simplified	impersonal	d	Yes	7.70885960104718	N/A	-1	0.58092125984252	0.042934331738934	0.838157480314961	-1	0.9	0	4337.42016806723	4390.22881820526	FALSE	-0.161842519685039	0	-0.431959825247297	8.14081942629447	0.9
102	51 assassins	6 police officers	quantity	1	102	1	simplified	impersonal	k	No	7.77737360265786	N/A	-1	0.810328	0.0367773434194068	0.379344	-1	0.4	1	4337.42016806723	4390.22881820526	FALSE	-0.620656	1	-0.363445823637151	8.14081942629501	0.4
102	a celebrity	9 adults	quantity	1	23	1	simplified	impersonal	k	No	8.28273588020175	N/A	-1	0.346775862068965	0.0431822688944483	0.693551724137931	-1	0.7	1	4337.42016806723	4390.22881820526	FALSE	-0.306448275862069	1	0.14027709875246	8.14245878144929	0.7
102	9 adults	a gang member	quantity	1	93	1	simplified	impersonal	d	Yes	7.81843027207066	N/A	-1	0.132613821138211	0.0296039657244917	0.265227642276423	1	0.3	1	4337.42016806723	4390.22881820526	TRUE	0.734772357723577	1	-0.322389154230495	8.14081942630115	0.3
102	a mentor	50 elderly people	quantity	1	96	1	simplified	impersonal	k	No	7.80791662892641	N/A	-1	0.445132	0.0439358730075657	0.890264	-1	0.9	1	4337.42016806723	4390.22881820526	FALSE	-0.109736	1	-0.332902797370972	8.14081942629738	0.9
102	4 homeless adults	6 elderly people	quantity	1	119	1	simplified	impersonal	k	No	8.68507770041242	N/A	-1	0.433672131147541	0.0433264577218648	0.867344262295082	-1	0.9	1	4337.42016806723	4390.22881820526	FALSE	-0.132655737704918	1	0.544258274117965	8.14081942629446	0.9
102	49 celebrities	5 mentors	quantity	1	59	1	simplified	impersonal	d	Yes	8.50592999913753	N/A	-1	0.603319672131148	0.0433430938717701	0.793360655737705	-1	0.8	0	4337.42016806723	4390.22881820526	FALSE	-0.206639344262295	0	0.365110493316703	8.14081950582082	0.8
102	8 terrorists	6 elderly people	quantity	1	79	1	simplified	impersonal	k	No	8.22174772834662	N/A	-1	0.042484126984127	0.0181963335254576	0.0849682539682539	-1	0.1	1	4337.42016806723	4390.22881820526	FALSE	-0.915031746031746	1	0.0809283017331968	8.14081942661343	0.1
102	48 homeless adults	9 adults	quantity	1	40	1	simplified	impersonal	d	Yes	8.73294952429643	N/A	-1	0.518520661157025	0.0445511108803052	0.96295867768595	-1	1	0	4337.42016806723	4390.22881820526	FALSE	-0.03704132231405	0	0.592115051694321	8.14083447260211	1
102	53 adults	6 addicts	quantity	1	113	1	simplified	impersonal	d	Yes	7.84619881549743	N/A	-1	0.297516129032258	0.0406104195753054	0.595032258064516	1	0.6	1	4337.42016806723	4390.22881820526	TRUE	0.404967741935484	1	-0.294620610797054	8.14081942629448	0.6
102	5 astronauts	47 pedophiles	quantity	1	80	1	simplified	impersonal	d	Yes	7.81480342948936	N/A	-1	0.93240756302521	0.0230424958525288	0.13518487394958	1	0.2	1	4337.42016806723	4390.22881820526	TRUE	0.86481512605042	1	-0.326015997047151	8.14081942653651	0.2
102	49 astronauts	6 addicts	quantity	1	66	1	simplified	impersonal	d	Yes	8.36147461641682	N/A	-1	0.301926229508197	0.0414379182685799	0.603852459016393	1	0.7	1	4337.42016806723	4390.22881820526	TRUE	0.396147540983607	1	0.220655178597221	8.1408194378196	0.7
102	50 thieves	9 rapists	quantity	1	82	1	simplified	impersonal	d	Yes	9.9493209688793	N/A	-1	0.314764462809917	0.0390924312533587	0.629528925619835	1	0.7	1	4337.42016806723	4390.22881820526	TRUE	0.370471074380165	1	1.80850154244546	8.14081942643385	0.7
102	a rapist	a college student	quantity	1	55	1	simplified	impersonal	k	No	7.73105314400713	N/A	-1	0.0448629032258065	0.0174214038850436	0.0897258064516129	-1	0.1	1	4337.42016806723	4390.22881820526	FALSE	-0.910274193548387	1	-0.409766522094673	8.1408196661018	0.1
102	9 rapists	48 congressmen	quantity	1	87	1	simplified	impersonal	k	No	7.81156848934518	N/A	-1	0.12169262295082	0.0287405643142651	0.243385245901639	-1	0.3	1	4337.42016806723	4390.22881820526	FALSE	-0.756614754098361	1	-0.329250936984352	8.14081942632953	0.3
102	3 college students	48 congressmen	quantity	1	7	1	simplified	impersonal	k	No	8.48776438072542	N/A	-1	0.554661538461538	0.0445665052738852	0.890676923076923	1	0.9	0	4337.42016806723	4390.22881820526	TRUE	0.109323076923077	0	0.211401567537081	8.27636281318834	0.9
102	50 addicts	a celebrity	quantity	1	25	1	simplified	impersonal	k	No	7.75362354655975	N/A	-1	0.561833333333333	0.0441077745229627	0.876333333333333	-1	0.9	1	4337.42016806723	4390.22881820526	FALSE	-0.123666666666667	1	-0.388139934938062	8.14176348149781	0.9
102	a mentor	a celebrity	quantity	1	111	1	simplified	impersonal	d	Yes	7.94555542825349	N/A	-1	0.372191304347826	0.04264093043522	0.744382608695652	1	0.8	1	4337.42016806723	4390.22881820526	TRUE	0.255617391304348	1	-0.19526399804101	8.1408194262945	0.8
102	49 orphans	53 rapists	quantity	1	105	1	simplified	impersonal	d	Yes	7.77611547709874	N/A	-1	0.0673728813559322	0.0230640959355313	0.134745762711864	1	0.2	1	4337.42016806723	4390.22881820526	TRUE	0.865254237288136	1	-0.364703949195956	8.1408194262947	0.2
102	4 congressmen	6 addicts	quantity	1	16	1	simplified	impersonal	d	Yes	7.41336733569524	N/A	-1	0.516045801526718	0.0418890013434708	0.967908396946565	1	1	1	4337.42016806723	4390.22881820526	TRUE	0.0320916030534349	1	-0.738764050627318	8.15213138632256	1
102	47 college students	a congressman	quantity	1	95	1	simplified	impersonal	d	Yes	8.18395571730495	N/A	-1	0.277054054054054	0.0423414606771157	0.554108108108108	1	0.6	1	4337.42016806723	4390.22881820526	TRUE	0.445891891891892	1	0.0431362910066433	8.14081942629831	0.6
102	51 assassins	53 rapists	quantity	1	69	1	simplified	impersonal	d	Yes	10.3937532623368	N/A	-1	0.281383333333333	0.0372265023759393	0.562766666666667	1	0.6	1	4337.42016806723	4390.22881820526	TRUE	0.437233333333333	1	2.25293383100576	8.140819431331	0.6
102	5 astronauts	6 police officers	quantity	1	62	1	simplified	impersonal	k	No	7.73630709654828	N/A	-1	0.525880165289256	0.0452840387529995	0.948239669421488	-1	1	1	4337.42016806723	4390.22881820526	FALSE	-0.051760330578512	1	-0.404512364499598	8.14081946104788	1
