sn	Item1	Item2	cond	sess	trial	trial_type	title	typeOfScen	keybResp	keyDef	keybRT	rtBeep	rtDeadline	averageP	sdp	overlap	direct.xVy	overlapRound	correct	avgRT	sdRT	targetPresent	dirOverlap	correct01	res.RT	fit.RT	overlapRoundSN
1	a convict	a pedophile	terrorist	1	56	1	simplified	impersonal	k	Yes	8.05452260953729	N/A	-1	0.767575187969925	0.0323881720842725	0.46484962406015	1	0.5	1	3940.36666666667	2012.37453675763	TRUE	0.53515037593985	1	-0.0850027728418343	8.13952538237913	0.5
1	a cockroach	a thief	terrorist	1	65	1	simplified	impersonal	d	No	8.06777619577889	N/A	-1	0.642260683760684	0.043284938389608	0.715478632478632	-1	0.8	1	3940.36666666667	2012.37453675763	FALSE	-0.284521367521368	1	-0.0717489696472278	8.13952516542612	0.8
1	a homeless adult	a rabid possum	terrorist	1	66	1	simplified	impersonal	k	Yes	8.0481491016652	N/A	-1	0.946662878787879	0.017746682826375	0.106674242424242	1	0.2	1	3940.36666666667	2012.37453675763	TRUE	0.893325757575758	1	-0.091376059294376	8.13952516095958	0.2
1	a college student	a thief	terrorist	1	82	1	simplified	impersonal	k	Yes	7.84306401669205	N/A	-1	0.890021186440678	0.0269477602042852	0.219957627118644	1	0.3	1	3940.36666666667	2012.37453675763	TRUE	0.780042372881356	1	-0.296461130893109	8.13952514758516	0.3
1	a smartphone	a rapist	terrorist	1	89	1	simplified	impersonal	k	Yes	8.79194198845612	N/A	-1	0.171795275590551	0.032979738451044	0.343590551181102	1	0.4	1	3940.36666666667	2012.37453675763	TRUE	0.656409448818898	1	0.65241684099211	8.13952514746401	0.4
1	a rabid possum	a terrorist	terrorist	1	45	1	simplified	impersonal	k	Yes	8.28702502516506	N/A	-1	0.422790322580645	0.0410965977367719	0.84558064516129	1	0.9	1	3940.36666666667	2012.37453675763	TRUE	0.15441935483871	1	0.147494443905705	8.13953058125936	0.9
1	a gang member	a life-saving antidote	terrorist	1	28	1	simplified	impersonal	d	No	8.03980234373648	N/A	-1	0.097827868852459	0.0270885167236823	0.195655737704918	-1	0.2	1	3940.36666666667	2012.37453675763	FALSE	-0.804344262295082	1	-0.100419992012585	8.14022233574907	0.2
1	an astronaut	an elderly person	terrorist	1	14	1	simplified	impersonal	k	Yes	8.38228942895144	N/A	-1	0.393838842975207	0.0423876598846921	0.787677685950413	-1	0.8	0	3940.36666666667	2012.37453675763	FALSE	-0.212322314049587	0	0.204784531433756	8.17750489751768	0.8
1	a billionaire	an orphan	terrorist	1	118	1	simplified	impersonal	d	No	8.02355239240435	N/A	-1	0.380700892857143	0.0445485273162883	0.761401785714286	-1	0.8	1	3940.36666666667	2012.37453675763	FALSE	-0.238598214285714	1	-0.115972755040678	8.13952514744503	0.8
1	a college student	a gang member	terrorist	1	47	1	simplified	impersonal	k	Yes	7.73105314400713	N/A	-1	0.872294871794872	0.0293594749548352	0.255410256410256	1	0.3	1	3940.36666666667	2012.37453675763	TRUE	0.744589743589744	1	-0.40847507299655	8.13952821700368	0.3
1	an adult	a life-saving antidote	terrorist	1	73	1	simplified	impersonal	d	No	8.47532898731754	N/A	-1	0.34001652892562	0.0422365432128769	0.68003305785124	-1	0.7	1	3940.36666666667	2012.37453675763	FALSE	-0.31996694214876	1	0.335803838041466	8.13952514927607	0.7
1	a billionaire	a thief	terrorist	1	99	1	simplified	impersonal	k	Yes	8.77493138749495	N/A	-1	0.826482142857143	0.0343610296918462	0.347035714285714	1	0.4	1	3940.36666666667	2012.37453675763	TRUE	0.652964285714286	1	0.635406240048834	8.13952514744611	0.4
1	a convict	an elderly person	terrorist	1	59	1	simplified	impersonal	d	No	8.35960327084147	N/A	-1	0.158904761904762	0.0300848985417712	0.317809523809524	-1	0.4	1	3940.36666666667	2012.37453675763	FALSE	-0.682190476190476	1	0.220078023648769	8.1395252471927	0.4
1	a billionaire	a college student	terrorist	1	46	1	simplified	impersonal	d	No	7.5999019592085	N/A	-1	0.432840909090909	0.0458532822660379	0.865681818181818	-1	0.9	1	3940.36666666667	2012.37453675763	FALSE	-0.134318181818182	1	-0.539627272280086	8.13952923148858	0.9
1	a celebrity	an orphan	terrorist	1	70	1	simplified	impersonal	d	No	7.88570539124302	N/A	-1	0.312214285714286	0.0426892506026397	0.624428571428571	-1	0.7	1	3940.36666666667	2012.37453675763	FALSE	-0.375571428571429	1	-0.253819760514649	8.13952515175767	0.7
1	a celebrity	an assassin	terrorist	1	68	1	simplified	impersonal	k	Yes	8.56483984488359	N/A	-1	0.819038461538461	0.0362089063579861	0.361923076923077	1	0.4	1	3940.36666666667	2012.37453675763	TRUE	0.638076923076923	1	0.425314689804205	8.13952515507938	0.4
1	a convict	a thief	terrorist	1	80	1	simplified	impersonal	d	No	8.08825472712243	N/A	-1	0.586798449612403	0.0411776111711639	0.826403100775194	1	0.9	0	3940.36666666667	2012.37453675763	TRUE	0.173596899224806	0	-0.051270420570674	8.1395251476931	0.9
1	a convict	a terrorist	terrorist	1	98	1	simplified	impersonal	k	Yes	7.74153358928183	N/A	-1	0.72605859375	0.0358905046359782	0.5478828125	1	0.6	1	3940.36666666667	2012.37453675763	TRUE	0.4521171875	1	-0.397991558164645	8.13952514744647	0.6
1	a judge	a police officer	terrorist	1	32	1	simplified	impersonal	k	Yes	7.83597458172157	N/A	-1	0.418957364341085	0.0411827154752114	0.837914728682171	-1	0.9	0	3940.36666666667	2012.37453675763	FALSE	-0.162085271317829	0	-0.303773046440601	8.13974762816217	0.9
1	an adult with a deadly contagious disease	an elderly person	terrorist	1	13	1	simplified	impersonal	d	No	8.88183630500415	N/A	-1	0.224889763779528	0.0352517867541622	0.449779527559055	-1	0.5	1	3940.36666666667	2012.37453675763	FALSE	-0.550220472440945	1	0.691779152403097	8.19005715260105	0.5
1	a homeless adult	a soldier	terrorist	1	17	1	simplified	impersonal	d	No	8.85495031650033	N/A	-1	0.302771317829457	0.0392780201490213	0.605542635658915	-1	0.7	1	3940.36666666667	2012.37453675763	FALSE	-0.394457364341085	1	0.699299831494809	8.15565048500552	0.7
1	an elderly person	an orphan	terrorist	1	53	1	simplified	impersonal	d	No	8.01135510916129	N/A	-1	0.493448717948718	0.0449143815757816	0.986897435897436	-1	1	1	3940.36666666667	2012.37453675763	FALSE	-0.0131025641025641	1	-0.128170591620288	8.13952570078157	1
1	a billionaire	a gang member	terrorist	1	77	1	simplified	impersonal	k	Yes	7.82604401351897	N/A	-1	0.800424107142857	0.0361418371462963	0.399151785714286	1	0.4	1	3940.36666666667	2012.37453675763	TRUE	0.600848214285714	1	-0.313481134510365	8.13952514802933	0.4
1	a soldier	a terrorist	terrorist	1	119	1	simplified	impersonal	k	Yes	7.69211333959547	N/A	-1	0.965954166666667	0.0162419605935617	0.0680916666666667	1	0.1	1	3940.36666666667	2012.37453675763	TRUE	0.931908333333333	1	-0.447411807849558	8.13952514744502	0.1
1	a homeless adult	a rapist	terrorist	1	108	1	simplified	impersonal	k	Yes	8.22147894726719	N/A	-1	0.92284328358209	0.0211262489472413	0.154313432835821	1	0.2	1	3940.36666666667	2012.37453675763	TRUE	0.845686567164179	1	0.0819537998220881	8.1395251474451	0.2
1	a congressman	a soldier	terrorist	1	110	1	simplified	impersonal	d	No	8.36497397843873	N/A	-1	0.254553571428571	0.0400474228789133	0.509107142857143	-1	0.6	1	3940.36666666667	2012.37453675763	FALSE	-0.490892857142857	1	0.225448830993658	8.13952514744507	0.6
1	an orphan	a nun	terrorist	1	18	1	simplified	impersonal	k	Yes	7.80425138352811	N/A	-1	0.331274590163934	0.0408151494092783	0.662549180327869	1	0.7	1	3940.36666666667	2012.37453675763	TRUE	0.337450819672131	1	-0.34739353411985	8.15164491764796	0.7
1	a celebrity	a smartphone	terrorist	1	5	1	simplified	impersonal	k	Yes	8.01301211036892	N/A	-1	0.701517543859649	0.0438928022145157	0.596964912280702	1	0.6	1	3940.36666666667	2012.37453675763	TRUE	0.403035087719298	1	-0.622741836792439	8.63575394716135	0.6
1	a homeless adult	a thief	terrorist	1	94	1	simplified	impersonal	k	Yes	7.70255611326858	N/A	-1	0.8327578125	0.0308603188685306	0.334484375	1	0.4	1	3940.36666666667	2012.37453675763	TRUE	0.665515625	1	-0.436969034180993	8.13952514744958	0.4
1	a mentor	a police officer	terrorist	1	12	1	simplified	impersonal	k	Yes	8.10500553754725	N/A	-1	0.500160305343511	0.0417484464604164	0.999679389312977	1	1	1	3940.36666666667	2012.37453675763	TRUE	0.000320610687023049	1	-0.10175237315198	8.20675791069923	1
1	an astronaut	a thief	terrorist	1	85	1	simplified	impersonal	k	Yes	7.85321638815607	N/A	-1	0.13008064516129	0.0300157703876853	0.260161290322581	1	0.3	1	3940.36666666667	2012.37453675763	TRUE	0.739838709677419	1	-0.286308759348449	8.13952514750452	0.3
1	a homeless adult	a mentor	terrorist	1	63	1	simplified	impersonal	d	No	8.34830105493394	N/A	-1	0.396565384615385	0.0397317680389132	0.793130769230769	-1	0.8	1	3940.36666666667	2012.37453675763	FALSE	-0.206869230769231	1	0.208775875658304	8.13952517927564	0.8
1	a celebrity	a terrorist	terrorist	1	92	1	simplified	impersonal	k	Yes	8.0774471493312	N/A	-1	0.884464285714286	0.028812201613889	0.231071428571429	1	0.3	1	3940.36666666667	2012.37453675763	TRUE	0.768928571428571	1	-0.0620779981218824	8.13952514745308	0.3
1	a congressman	a mentor	terrorist	1	49	1	simplified	impersonal	d	No	8.24249315318763	N/A	-1	0.328504385964912	0.0446866345382589	0.657008771929825	-1	0.7	1	3940.36666666667	2012.37453675763	FALSE	-0.342991228070175	1	0.102966271750651	8.13952688143698	0.7
1	a college student	a terrorist	terrorist	1	79	1	simplified	impersonal	k	Yes	7.76937860951398	N/A	-1	0.959970085470085	0.0176207895888462	0.0800598290598291	1	0.1	1	3940.36666666667	2012.37453675763	TRUE	0.919940170940171	1	-0.370146538261112	8.1395251477751	0.1
1	an assassin	a rapist	terrorist	1	58	1	simplified	impersonal	k	Yes	8.70084719344397	N/A	-1	0.376809160305344	0.0378201733093437	0.753618320610687	1	0.8	1	3940.36666666667	2012.37453675763	TRUE	0.246381679389313	1	0.561321913284806	8.13952528015917	0.8
1	a college student	an astronaut	terrorist	1	26	1	simplified	impersonal	k	Yes	7.73848812249465	N/A	-1	0.558131147540984	0.0447336171236144	0.883737704918033	1	0.9	1	3940.36666666667	2012.37453675763	TRUE	0.116262295081967	1	-0.402271206220657	8.1407593287153	0.9
1	an astronaut	a soldier	terrorist	1	8	1	simplified	impersonal	d	No	8.00570067866254	N/A	-1	0.65444	0.0412889231534945	0.69112	-1	0.7	1	3940.36666666667	2012.37453675763	FALSE	-0.30888	1	-0.34451192426487	8.35021260292741	0.7
1	a billionaire	an adult with a deadly contagious disease	terrorist	1	97	1	simplified	impersonal	k	Yes	8.35208267135264	N/A	-1	0.679909836065574	0.0410855482355913	0.640180327868852	1	0.7	1	3940.36666666667	2012.37453675763	TRUE	0.359819672131148	1	0.212557523905684	8.13952514744695	0.7
1	a congressman	a police officer	terrorist	1	6	1	simplified	impersonal	k	Yes	8.36915711258883	N/A	-1	0.337379166666667	0.0433951137377583	0.674758333333333	-1	0.7	0	3940.36666666667	2012.37453675763	FALSE	-0.325241666666667	0	-0.143332569587962	8.5124896821768	0.7
1	a celebrity	a rabid possum	terrorist	1	95	1	simplified	impersonal	k	Yes	8.31532177537757	N/A	-1	0.895029914529915	0.0283846099629995	0.209940170940171	1	0.3	1	3940.36666666667	2012.37453675763	TRUE	0.790059829059829	1	0.175796627929124	8.13952514744844	0.3
1	a nun	a soldier	terrorist	1	102	1	simplified	impersonal	d	No	7.95647679803678	N/A	-1	0.308661290322581	0.0395741053504535	0.617322580645161	-1	0.7	1	3940.36666666667	2012.37453675763	FALSE	-0.382677419354839	1	-0.183048349408702	8.13952514744548	0.7
1	an addict	a congressman	terrorist	1	55	1	simplified	impersonal	k	Yes	7.96519829061218	N/A	-1	0.593779816513761	0.0454825651374978	0.812440366972477	-1	0.9	0	3940.36666666667	2012.37453675763	FALSE	-0.187559633027523	0	-0.174327169412352	8.13952546002453	0.9
1	an addict	a mentor	terrorist	1	15	1	simplified	impersonal	d	No	7.64012317269536	N/A	-1	0.771420833333333	0.0373374761509099	0.457158333333333	-1	0.5	1	3940.36666666667	2012.37453675763	FALSE	-0.542841666666667	1	-0.527947475984523	8.16807064867989	0.5
1	an elderly person	a homeless adult	terrorist	1	27	1	simplified	impersonal	d	No	7.99328232810159	N/A	-1	0.34888	0.0404506347768963	0.69776	1	0.7	0	3940.36666666667	2012.37453675763	TRUE	0.30224	0	-0.147170427421615	8.14045275552321	0.7
1	a celebrity	an adult	terrorist	1	112	1	simplified	impersonal	d	No	8.22550309756692	N/A	-1	0.386696428571429	0.0427592211259445	0.773392857142857	-1	0.8	1	3940.36666666667	2012.37453675763	FALSE	-0.226607142857143	1	0.0859779501218707	8.13952514744505	0.8
1	a billionaire	a judge	terrorist	1	107	1	simplified	impersonal	d	No	8.29579811063615	N/A	-1	0.509799107142857	0.0458529020827892	0.980401785714286	1	1	0	3940.36666666667	2012.37453675763	TRUE	0.019598214285714	0	0.156272963191013	8.13952514744513	1
1	a billionaire	a celebrity	terrorist	1	7	1	simplified	impersonal	d	No	8.34616759436413	N/A	-1	0.557128571428571	0.0483242954193562	0.885742857142857	1	0.9	0	3940.36666666667	2012.37453675763	TRUE	0.114257142857143	0	-0.0736769223863476	8.41984451675048	0.9
1	a congressman	an astronaut	terrorist	1	24	1	simplified	impersonal	d	No	8.16820293023605	N/A	-1	0.36735652173913	0.0439582539881778	0.734713043478261	-1	0.8	1	3940.36666666667	2012.37453675763	FALSE	-0.265286956521739	1	0.0264930022961902	8.14170992793986	0.8
1	a judge	a rabid possum	terrorist	1	31	1	simplified	impersonal	k	Yes	7.96866570046623	N/A	-1	0.966270161290323	0.0148841129102173	0.0674596774193548	1	0.1	1	3940.36666666667	2012.37453675763	TRUE	0.932540322580645	1	-0.171155457266491	8.13982115773273	0.1
1	a rabid possum	a pedophile	terrorist	1	33	1	simplified	impersonal	k	Yes	8.94062918484564	N/A	-1	0.3520234375	0.0378515366945483	0.704046875	1	0.8	1	3940.36666666667	2012.37453675763	TRUE	0.295953125	1	0.800936821355913	8.13969236348973	0.8
1	an adult	a gang member	terrorist	1	51	1	simplified	impersonal	k	Yes	7.59789795052178	N/A	-1	0.144597457627119	0.031758057218611	0.289194915254237	1	0.3	1	3940.36666666667	2012.37453675763	TRUE	0.710805084745763	1	-0.541628176454315	8.1395261269761	0.3
1	a rabid possum	a soldier	terrorist	1	57	1	simplified	impersonal	d	No	8.20193435119422	N/A	-1	0.983396	0.0108454971674335	0.0332080000000001	-1	0.1	1	3940.36666666667	2012.37453675763	FALSE	-0.966792	1	0.0624090271732136	8.13952532402101	0.1
1	an addict	a smartphone	terrorist	1	20	1	simplified	impersonal	k	Yes	8.06620756800626	N/A	-1	0.557512711864407	0.0452002593125871	0.884974576271186	1	0.9	1	3940.36666666667	2012.37453675763	TRUE	0.115025423728814	1	-0.0801640307961904	8.14637159880245	0.9
1	a college student	a nun	terrorist	1	39	1	simplified	impersonal	k	Yes	7.60339933974067	N/A	-1	0.606892561983471	0.0434389872864491	0.786214876033058	1	0.8	1	3940.36666666667	2012.37453675763	TRUE	0.213785123966942	1	-0.536155951044264	8.13955529078493	0.8
1	a judge	a rapist	terrorist	1	60	1	simplified	impersonal	k	Yes	8.20767442435528	N/A	-1	0.937186507936508	0.0216142114701964	0.125626984126984	1	0.2	1	3940.36666666667	2012.37453675763	TRUE	0.874373015873016	1	0.0681492019401162	8.13952522241517	0.2
1	an adult	an adult with a deadly contagious disease	terrorist	1	50	1	simplified	impersonal	k	Yes	8.42595471098197	N/A	-1	0.732767441860465	0.0377133491391236	0.53446511627907	1	0.6	1	3940.36666666667	2012.37453675763	TRUE	0.46553488372093	1	0.286428260272194	8.13952645070977	0.6
1	a pedophile	a soldier	terrorist	1	120	1	simplified	impersonal	d	No	8.663714844079	N/A	-1	0.031048	0.0153811012048642	0.062096	-1	0.1	1	3940.36666666667	2012.37453675763	FALSE	-0.937904	1	0.524189696633981	8.13952514744502	0.1
1	an adult	a cockroach	terrorist	1	67	1	simplified	impersonal	k	Yes	8.1744211526465	N/A	-1	0.977068965517241	0.0127970170250209	0.0458620689655171	1	0.1	1	3940.36666666667	2012.37453675763	TRUE	0.954137931034483	1	0.0348959950439642	8.13952515760253	0.1
1	an addict	a rapist	terrorist	1	105	1	simplified	impersonal	k	Yes	7.83122021460429	N/A	-1	0.171774193548387	0.0322414105028782	0.343548387096774	1	0.4	1	3940.36666666667	2012.37453675763	TRUE	0.656451612903226	1	-0.308304932840925	8.13952514744522	0.4
1	a police officer	a terrorist	terrorist	1	43	1	simplified	impersonal	k	Yes	8.62083222617572	N/A	-1	0.94316015625	0.0196864140471973	0.1136796875	1	0.2	1	3940.36666666667	2012.37453675763	TRUE	0.8863203125	1	0.481297459648108	8.13953476652762	0.2
1	a college student	a police officer	terrorist	1	48	1	simplified	impersonal	k	Yes	7.7367436824535	N/A	-1	0.502531496062992	0.0422807672059856	0.994937007874016	1	1	1	3940.36666666667	2012.37453675763	TRUE	0.00506299212598404	1	-0.402783772065433	8.13952745451893	1
1	an elderly person	a cockroach	terrorist	1	106	1	simplified	impersonal	k	Yes	7.6246189861594	N/A	-1	0.975282608695652	0.0137406182207404	0.0494347826086956	1	0.1	1	3940.36666666667	2012.37453675763	TRUE	0.950565217391304	1	-0.514906161285769	8.13952514744517	0.1
1	an adult	a convict	terrorist	1	69	1	simplified	impersonal	k	Yes	7.9665866976384	N/A	-1	0.1900625	0.0315403646029463	0.380125	1	0.4	1	3940.36666666667	2012.37453675763	TRUE	0.619875	1	-0.172938455544592	8.13952515318299	0.4
1	an astronaut	a pedophile	terrorist	1	91	1	simplified	impersonal	k	Yes	7.89766815072691	N/A	-1	0.04521484375	0.0182970665233839	0.0904296875	1	0.1	1	3940.36666666667	2012.37453675763	TRUE	0.9095703125	1	-0.24185699672884	8.13952514745575	0.1
1	a gang member	a mentor	terrorist	1	78	1	simplified	impersonal	d	No	8.1978140322212	N/A	-1	0.13197131147541	0.0293087925400361	0.26394262295082	-1	0.3	1	3940.36666666667	2012.37453675763	FALSE	-0.73605737704918	1	0.0582888843370171	8.13952514788419	0.3
1	a billionaire	a cockroach	terrorist	1	72	1	simplified	impersonal	k	Yes	8.00503334463711	N/A	-1	0.934636363636364	0.022333748386201	0.130727272727273	1	0.2	1	3940.36666666667	2012.37453675763	TRUE	0.869272727272727	1	-0.134491805244123	8.13952514988123	0.2
1	a pedophile	a terrorist	terrorist	1	81	1	simplified	impersonal	k	Yes	8.11162807830774	N/A	-1	0.44540243902439	0.0362670970792328	0.890804878048781	-1	0.9	0	3940.36666666667	2012.37453675763	FALSE	-0.109195121951219	0	-0.0278970693237408	8.13952514763148	0.9
1	a rabid possum	a smartphone	terrorist	1	54	1	simplified	impersonal	d	No	9.00895831244349	N/A	-1	0.177212	0.0332371443382816	0.354424	-1	0.4	1	3940.36666666667	2012.37453675763	FALSE	-0.645576	1	0.86943274911186	8.13952556333163	0.4
1	a gang member	an orphan	terrorist	1	104	1	simplified	impersonal	d	No	7.86518795418747	N/A	-1	0.110205882352941	0.0277617017264551	0.220411764705882	-1	0.3	1	3940.36666666667	2012.37453675763	FALSE	-0.779588235294118	1	-0.274337193257814	8.13952514744528	0.3
1	a life-saving antidote	a soldier	terrorist	1	25	1	simplified	impersonal	k	Yes	8.26873183211774	N/A	-1	0.445065040650407	0.0429333250180719	0.890130081300813	1	0.9	1	3940.36666666667	2012.37453675763	TRUE	0.109869918699187	1	0.127564608192642	8.14116722392509	0.9
1	a congressman	a rabid possum	terrorist	1	74	1	simplified	impersonal	k	Yes	8.3170334764924	N/A	-1	0.8705	0.0302090858370011	0.259	1	0.3	1	3940.36666666667	2012.37453675763	TRUE	0.741	1	0.177508327671168	8.13952514882124	0.3
1	an assassin	a smartphone	terrorist	1	87	1	simplified	impersonal	d	No	8.66544076787644	N/A	-1	0.298688	0.0395016840025718	0.597376	-1	0.6	1	3940.36666666667	2012.37453675763	FALSE	-0.402624	1	0.525915620397807	8.13952514747863	0.6
1	an addict	a gang member	terrorist	1	38	1	simplified	impersonal	k	Yes	7.87054784450771	N/A	-1	0.348239316239316	0.0432900858194097	0.696478632478633	1	0.7	1	3940.36666666667	2012.37453675763	TRUE	0.303521367521367	1	-0.269017408609542	8.13956525311725	0.7
1	a congressman	a gang member	terrorist	1	22	1	simplified	impersonal	k	Yes	8.33375100695358	N/A	-1	0.724513513513514	0.0412069158809236	0.550972972972973	1	0.6	1	3940.36666666667	2012.37453675763	TRUE	0.449027027027027	1	0.190358302995126	8.14339270395845	0.6
1	a college student	a smartphone	terrorist	1	16	1	simplified	impersonal	k	Yes	8.07246736935477	N/A	-1	0.846210084033613	0.0324644197733429	0.307579831932773	1	0.4	1	3940.36666666667	2012.37453675763	TRUE	0.692420168067227	1	-0.0885125175024584	8.16097988685723	0.4
1	an adult with a deadly contagious disease	a congressman	terrorist	1	84	1	simplified	impersonal	d	No	8.47177732788576	N/A	-1	0.590417355371901	0.0426087286755071	0.819165289256198	-1	0.9	1	3940.36666666667	2012.37453675763	FALSE	-0.180834710743802	1	0.332252180361568	8.13952514752419	0.9
1	a mentor	a nun	terrorist	1	115	1	simplified	impersonal	d	No	8.54985397365579	N/A	-1	0.601492	0.0424672273806685	0.797016	1	0.8	0	3940.36666666667	2012.37453675763	TRUE	0.202984	0	0.410328826210755	8.13952514744503	0.8
1	an assassin	a terrorist	terrorist	1	83	1	simplified	impersonal	d	No	7.7106533235012	N/A	-1	0.406971774193548	0.0399824930957364	0.813943548387097	1	0.9	0	3940.36666666667	2012.37453675763	TRUE	0.186056451612903	0	-0.42887182404915	8.13952514755035	0.9
1	a smartphone	a thief	terrorist	1	2	1	simplified	impersonal	d	No	9.29789326898404	N/A	-1	0.344004132231405	0.0419167771033713	0.68800826446281	1	0.7	0	3940.36666666667	2012.37453675763	TRUE	0.31199173553719	0	-0.0103916468302572	9.3082849158143	0.7
1	a rabid possum	a rapist	terrorist	1	30	1	simplified	impersonal	d	No	7.60140233458373	N/A	-1	0.375400763358779	0.0387862590238971	0.750801526717557	1	0.8	0	3940.36666666667	2012.37453675763	TRUE	0.249198473282443	0	-0.538516654141338	8.13991898872507	0.8
1	an adult	a thief	terrorist	1	44	1	simplified	impersonal	k	Yes	8.33447155460094	N/A	-1	0.124743697478992	0.0286444801881048	0.249487394957983	1	0.3	1	3940.36666666667	2012.37453675763	TRUE	0.750512605042017	1	0.194939177473433	8.13953237712751	0.3
1	a nun	a smartphone	terrorist	1	86	1	simplified	impersonal	k	Yes	8.22121009392507	N/A	-1	0.773237903225806	0.0368064001828361	0.453524193548387	1	0.5	1	3940.36666666667	2012.37453675763	TRUE	0.546475806451613	1	0.0816849464353275	8.13952514748974	0.5
1	a pedophile	a thief	terrorist	1	96	1	simplified	impersonal	d	No	8.66768002469017	N/A	-1	0.294383064516129	0.0359088954403029	0.588766129032258	-1	0.6	1	3940.36666666667	2012.37453675763	FALSE	-0.411233870967742	1	0.528154877242581	8.13952514744759	0.6
1	an addict	a life-saving antidote	terrorist	1	34	1	simplified	impersonal	d	No	8.33327035325531	N/A	-1	0.150495833333333	0.0322217365497035	0.300991666666667	-1	0.4	1	3940.36666666667	2012.37453675763	FALSE	-0.699008333333333	1	0.193619526578551	8.13965082667676	0.4
1	a congressman	a nun	terrorist	1	4	1	simplified	impersonal	d	No	9.41889806496197	N/A	-1	0.410649122807018	0.0461970497803229	0.821298245614035	-1	0.9	1	3940.36666666667	2012.37453675763	FALSE	-0.178701754385965	1	0.619141183030443	8.79975688193153	0.9
1	a cockroach	a terrorist	terrorist	1	62	1	simplified	impersonal	k	Yes	7.92551897978693	N/A	-1	0.461474358974359	0.0414875664298859	0.922948717948718	1	1	1	3940.36666666667	2012.37453675763	TRUE	0.077051282051282	1	-0.214006210008687	8.13952518979561	1
1	an addict	a cockroach	terrorist	1	71	1	simplified	impersonal	k	Yes	7.88683299895506	N/A	-1	0.832765217391304	0.0328373852556804	0.334469565217391	1	0.4	1	3940.36666666667	2012.37453675763	TRUE	0.665530434782609	1	-0.252692151731341	8.1395251506864	0.4
1	a celebrity	a rapist	terrorist	1	109	1	simplified	impersonal	k	Yes	8.20412493257404	N/A	-1	0.891428571428571	0.0262096352054434	0.217142857142857	1	0.3	1	3940.36666666667	2012.37453675763	TRUE	0.782857142857143	1	0.0645997851289586	8.13952514744508	0.3
1	a cockroach	a smartphone	terrorist	1	3	1	simplified	impersonal	d	No	9.30027247947679	N/A	-1	0.143127118644068	0.0314101871618447	0.286254237288136	-1	0.3	1	3940.36666666667	2012.37453675763	FALSE	-0.713745762711864	1	0.282309918741271	9.01796256073552	0.3
1	an addict	a police officer	terrorist	1	42	1	simplified	impersonal	k	Yes	8.11132800328673	N/A	-1	0.755444444444444	0.0373379061935243	0.489111111111111	-1	0.5	0	3940.36666666667	2012.37453675763	FALSE	-0.510888888888889	0	-0.0282099423344313	8.13953794562116	0.5
1	a congressman	a thief	terrorist	1	116	1	simplified	impersonal	d	No	8.13856473726163	N/A	-1	0.753238738738739	0.0390663538450212	0.493522522522523	1	0.5	0	3940.36666666667	2012.37453675763	TRUE	0.506477477477477	0	-0.000960410183397542	8.13952514744503	0.5
1	a college student	a pedophile	terrorist	1	100	1	simplified	impersonal	k	Yes	7.97831096986772	N/A	-1	0.964573770491803	0.0158231596906213	0.0708524590163935	1	0.1	1	3940.36666666667	2012.37453675763	TRUE	0.929147540983607	1	-0.16121417757812	8.13952514744584	0.1
1	a convict	a police officer	terrorist	1	61	1	simplified	impersonal	k	Yes	8.39321601159653	N/A	-1	0.188289855072464	0.0327554480996332	0.376579710144928	-1	0.4	0	3940.36666666667	2012.37453675763	FALSE	-0.623420289855072	0	0.2536908078041	8.13952520379243	0.4
1	an orphan	a terrorist	terrorist	1	114	1	simplified	impersonal	k	Yes	7.89020821310996	N/A	-1	0.0344789915966387	0.01675172696323	0.0689579831932773	1	0.1	1	3940.36666666667	2012.37453675763	TRUE	0.931042016806723	1	-0.249316934335074	8.13952514744503	0.1
1	an assassin	a rabid possum	terrorist	1	10	1	simplified	impersonal	k	Yes	8.83593778931984	N/A	-1	0.541968992248062	0.0419414067274091	0.916062015503876	1	1	1	3940.36666666667	2012.37453675763	TRUE	0.083937984496124	1	0.577395417007661	8.25854237231217	1
1	a convict	an orphan	terrorist	1	1	1	simplified	impersonal	d	No	9.5410100922274	N/A	-1	0.1422890625	0.0302643763028473	0.284578125	-1	0.3	1	3940.36666666667	2012.37453675763	FALSE	-0.715421875	1	-0.153548317111349	9.69455840933875	0.3
1	an adult	a mentor	terrorist	1	88	1	simplified	impersonal	d	No	8.64822145382264	N/A	-1	0.517301652892562	0.0447574930792803	0.965396694214876	-1	1	1	3940.36666666667	2012.37453675763	FALSE	-0.034603305785124	1	0.508696306352357	8.13952514747028	1
1	an elderly person	a judge	terrorist	1	93	1	simplified	impersonal	k	Yes	8.62730241409627	N/A	-1	0.36324358974359	0.043010286968003	0.726487179487179	1	0.8	1	3940.36666666667	2012.37453675763	TRUE	0.273512820512821	1	0.487777266645187	8.13952514745108	0.8
1	a cockroach	a rabid possum	terrorist	1	23	1	simplified	impersonal	d	No	7.89394513823596	N/A	-1	0.439381147540984	0.0419709341322325	0.878762295081967	-1	0.9	1	3940.36666666667	2012.37453675763	FALSE	-0.121237704918033	1	-0.248486856647998	8.14243199488396	0.9
1	a homeless adult	a pedophile	terrorist	1	40	1	simplified	impersonal	k	Yes	8.42989086301344	N/A	-1	0.935996212121212	0.0191870359218625	0.128007575757576	1	0.2	1	3940.36666666667	2012.37453675763	TRUE	0.871992424242424	1	0.290343059896777	8.13954780311666	0.2
1	an assassin	a judge	terrorist	1	9	1	simplified	impersonal	d	No	8.29379960884682	N/A	-1	0.877564516129032	0.0267608149962397	0.244870967741935	-1	0.3	1	3940.36666666667	2012.37453675763	FALSE	-0.755129032258065	1	-0.00407779234230432	8.29787740118912	0.3
1	a gang member	a terrorist	terrorist	1	90	1	simplified	impersonal	k	Yes	8.56274000637221	N/A	-1	0.689663865546219	0.0385966813727044	0.620672268907563	1	0.7	1	3940.36666666667	2012.37453675763	TRUE	0.379327731092437	1	0.423214858912916	8.13952514745929	0.7
1	a judge	a life-saving antidote	terrorist	1	76	1	simplified	impersonal	d	No	8.08548677210285	N/A	-1	0.281688524590164	0.0386166842551	0.563377049180328	-1	0.6	1	3940.36666666667	2012.37453675763	FALSE	-0.436622950819672	1	-0.0540383761195979	8.13952514822244	0.6
1	an astronaut	a nun	terrorist	1	101	1	simplified	impersonal	d	No	7.84031298332016	N/A	-1	0.439846456692913	0.0425269458000953	0.879692913385827	1	0.9	0	3940.36666666667	2012.37453675763	TRUE	0.120307086614173	0	-0.299212164125473	8.13952514744564	0.9
1	a smartphone	a soldier	terrorist	1	19	1	simplified	impersonal	d	No	7.63819824428578	N/A	-1	0.87525	0.0290441949976127	0.2495	-1	0.3	1	3940.36666666667	2012.37453675763	FALSE	-0.7505	1	-0.510436097259583	8.14863434154536	0.3
1	an astronaut	a rabid possum	terrorist	1	36	1	simplified	impersonal	k	Yes	8.51939077495972	N/A	-1	0.97508984375	0.0128536987079887	0.0498203125000001	1	0.1	1	3940.36666666667	2012.37453675763	TRUE	0.9501796875	1	0.379794631387524	8.1395961435722	0.1
1	an addict	a soldier	terrorist	1	75	1	simplified	impersonal	d	No	8.29529885950246	N/A	-1	0.823618644067797	0.033596374904528	0.352762711864407	-1	0.4	1	3940.36666666667	2012.37453675763	FALSE	-0.647237288135593	1	0.155773711023079	8.13952514847938	0.4
1	an addict	a homeless adult	terrorist	1	113	1	simplified	impersonal	d	No	8.02224091680654	N/A	-1	0.691148	0.0398112928078835	0.617704	-1	0.7	1	3940.36666666667	2012.37453675763	FALSE	-0.382296	1	-0.117284230638504	8.13952514744504	0.7
1	an assassin	a mentor	terrorist	1	52	1	simplified	impersonal	d	No	8.26873183211774	N/A	-1	0.910877952755906	0.023735154595074	0.178244094488189	-1	0.2	1	3940.36666666667	2012.37453675763	FALSE	-0.821755905511811	1	0.129205948459193	8.13952588365854	0.2
1	a nun	a police officer	terrorist	1	21	1	simplified	impersonal	k	Yes	8.00936307663004	N/A	-1	0.404784090909091	0.0414255826443466	0.809568181818182	-1	0.9	0	3940.36666666667	2012.37453675763	FALSE	-0.190431818181818	0	-0.135307849428688	8.14467092605873	0.9
1	a celebrity	a cockroach	terrorist	1	11	1	simplified	impersonal	k	Yes	7.80791662892641	N/A	-1	0.907536363636364	0.025968701630491	0.184927272727273	1	0.2	1	3940.36666666667	2012.37453675763	TRUE	0.815072727272727	1	-0.421061617417788	8.2289782463442	0.2
1	a cockroach	a life-saving antidote	terrorist	1	35	1	simplified	impersonal	d	No	7.58984151218266	N/A	-1	0.00956666666666667	0.00812680341971624	0.0191333333333333	-1	0.1	1	3940.36666666667	2012.37453675763	FALSE	-0.980866666666667	1	-0.549778095511781	8.13961960769444	0.1
10	a gang member	a mentor	terrorist	1	103	1	simplified	impersonal	k	No	8.2117543973752	N/A	-1	0.13197131147541	0.0293087925400361	0.26394262295082	-1	0.3	1	3867.18644067797	2599.14538863596	FALSE	-0.73605737704918	1	0.429454521851987	7.78229987552321	0.3
10	a billionaire	an assassin	terrorist	1	108	1	simplified	impersonal	d	Yes	7.85554467791566	N/A	-1	0.852367521367521	0.0314124116691565	0.295264957264957	1	0.3	1	3867.18644067797	2599.14538863596	TRUE	0.704735042735043	1	0.0794893172692817	7.77605536064638	0.3
10	a billionaire	a rapist	terrorist	1	54	1	simplified	impersonal	d	Yes	8.52078672692637	N/A	-1	0.912802521008403	0.0241430370291116	0.174394957983193	1	0.2	1	3867.18644067797	2599.14538863596	TRUE	0.825605042016807	1	0.551562981299131	7.96922374562724	0.2
10	an adult	a homeless adult	terrorist	1	113	1	simplified	impersonal	d	Yes	8.0381891799732	N/A	-1	0.414681102362205	0.0430421897230041	0.829362204724409	1	0.9	1	3867.18644067797	2599.14538863596	TRUE	0.170637795275591	1	0.267334652950721	7.77085452702248	0.9
10	a congressman	a smartphone	terrorist	1	116	1	simplified	impersonal	d	Yes	7.53743003658651	N/A	-1	0.650089285714286	0.0447605876484571	0.699821428571429	1	0.7	1	3867.18644067797	2599.14538863596	TRUE	0.300178571428571	1	-0.230731118008777	7.76816115459529	0.7
10	a congressman	an elderly person	terrorist	1	89	1	simplified	impersonal	k	No	7.57763383260273	N/A	-1	0.29095871559633	0.0417844167460463	0.581917431192661	-1	0.6	1	3867.18644067797	2599.14538863596	FALSE	-0.418082568807339	1	-0.229651961922611	7.80728579452534	0.6
10	a billionaire	a nun	terrorist	1	18	1	simplified	impersonal	k	No	8.73020559553099	N/A	-1	0.527078260869565	0.0467951849622314	0.94584347826087	1	1	0	3867.18644067797	2599.14538863596	TRUE	0.05415652173913	0	0.148379995588327	8.58182559994266	1
10	an orphan	a soldier	terrorist	1	37	1	simplified	impersonal	d	Yes	7.86672228513673	N/A	-1	0.537395833333333	0.0452566656672262	0.925208333333333	-1	1	0	3867.18644067797	2599.14538863596	FALSE	-0.074791666666667	0	-0.295901089071312	8.16262337420804	1
10	an adult with a deadly contagious disease	a pedophile	terrorist	1	119	1	simplified	impersonal	d	Yes	7.9355873855892	N/A	-1	0.187899253731343	0.0319121911513657	0.375798507462687	1	0.4	1	3867.18644067797	2599.14538863596	TRUE	0.624201492537313	1	0.16983969576306	7.76574768982614	0.4
10	an assassin	a rabid possum	terrorist	1	45	1	simplified	impersonal	k	No	8.04398443122155	N/A	-1	0.541968992248062	0.0419414067274091	0.916062015503876	1	1	0	3867.18644067797	2599.14538863596	TRUE	0.083937984496124	0	-0.0126759979997786	8.05666042922133	1
10	an assassin	a judge	terrorist	1	14	1	simplified	impersonal	k	No	8.87206651340834	N/A	-1	0.877564516129032	0.0267608149962397	0.244870967741935	-1	0.3	1	3867.18644067797	2599.14538863596	FALSE	-0.755129032258065	1	0.158387396273065	8.71367911713528	0.3
10	an assassin	a homeless adult	terrorist	1	25	1	simplified	impersonal	k	No	8.9549318600747	N/A	-1	0.86357196969697	0.0291099829876949	0.272856060606061	-1	0.3	1	3867.18644067797	2599.14538863596	FALSE	-0.727143939393939	1	0.562148905946295	8.3927829541284	0.3
10	an addict	an adult	terrorist	1	29	1	simplified	impersonal	k	No	8.63177109612367	N/A	-1	0.249112068965517	0.0399747183345918	0.498224137931034	-1	0.5	1	3867.18644067797	2599.14538863596	FALSE	-0.501775862068966	1	0.327165094029477	8.3046060020942	0.5
10	an astronaut	a life-saving antidote	terrorist	1	115	1	simplified	impersonal	d	Yes	7.6251071482389	N/A	-1	0.300345238095238	0.0409364299350954	0.600690476190476	-1	0.7	0	3867.18644067797	2599.14538863596	FALSE	-0.399309523809524	0	-0.143919166195871	7.76902631443477	0.7
10	a mentor	a life-saving antidote	terrorist	1	57	1	simplified	impersonal	d	Yes	8.52833093582669	N/A	-1	0.349144	0.0395688888011903	0.698288	-1	0.7	0	3867.18644067797	2599.14538863596	FALSE	-0.301712	0	0.582416004757253	7.94591493106944	0.7
10	an addict	a pedophile	terrorist	1	85	1	simplified	impersonal	d	Yes	7.30854279753919	N/A	-1	0.15049173553719	0.0299568238226622	0.30098347107438	1	0.4	1	3867.18644067797	2599.14538863596	TRUE	0.69901652892562	1	-0.508566042517874	7.81710884005706	0.4
10	an adult	a police officer	terrorist	1	87	1	simplified	impersonal	d	Yes	7.56734567601324	N/A	-1	0.5186171875	0.0415755171778906	0.962765625	-1	1	0	3867.18644067797	2599.14538863596	FALSE	-0.037234375	0	-0.24467207304034	7.81201774905358	1
10	a celebrity	an assassin	terrorist	1	50	1	simplified	impersonal	d	Yes	7.7341213033283	N/A	-1	0.819038461538461	0.0362089063579861	0.361923076923077	1	0.4	1	3867.18644067797	2599.14538863596	TRUE	0.638076923076923	1	-0.270439172749814	8.00456047607812	0.4
10	a convict	a cockroach	terrorist	1	61	1	simplified	impersonal	k	No	8.08764028777898	N/A	-1	0.729218253968254	0.0374582859734114	0.541563492063492	1	0.6	0	3867.18644067797	2599.14538863596	TRUE	0.458436507936508	0	0.16907995380046	7.91856033397852	0.6
10	an adult	a mentor	terrorist	1	2	1	simplified	impersonal	d	Yes	9.55732855032537	N/A	-1	0.517301652892562	0.0447574930792803	0.965396694214876	-1	1	0	3867.18644067797	2599.14538863596	FALSE	-0.034603305785124	0	0.309838483752889	9.24749006657248	1
10	an astronaut	a rabid possum	terrorist	1	76	1	simplified	impersonal	d	Yes	7.65491704784832	N/A	-1	0.97508984375	0.0128536987079887	0.0498203125000001	1	0.1	1	3867.18644067797	2599.14538863596	TRUE	0.9501796875	1	-0.190327255136212	7.84524430298453	0.1
10	a judge	a mentor	terrorist	1	101	1	simplified	impersonal	k	No	8.27792025817214	N/A	-1	0.414963114754098	0.0449936776153588	0.829926229508197	-1	0.9	1	3867.18644067797	2599.14538863596	FALSE	-0.170073770491803	1	0.49278475971635	7.78513549845579	0.9
10	an addict	an astronaut	terrorist	1	35	1	simplified	impersonal	k	No	8.07433769408951	N/A	-1	0.258880165289256	0.0385035773654987	0.517760330578512	-1	0.6	1	3867.18644067797	2599.14538863596	FALSE	-0.482239669421488	1	-0.119986339676965	8.19432403376648	0.6
10	a college student	a pedophile	terrorist	1	82	1	simplified	impersonal	d	Yes	7.66762609158499	N/A	-1	0.964573770491803	0.0158231596906213	0.0708524590163935	1	0.1	1	3867.18644067797	2599.14538863596	TRUE	0.929147540983607	1	-0.157852952059089	7.82547904364408	0.1
10	an adult	a life-saving antidote	terrorist	1	92	1	simplified	impersonal	d	Yes	7.44833386089748	N/A	-1	0.34001652892562	0.0422365432128769	0.68003305785124	-1	0.7	0	3867.18644067797	2599.14538863596	FALSE	-0.31996694214876	0	-0.352472456218089	7.80080631711556	0.7
10	a billionaire	a pedophile	terrorist	1	53	1	simplified	impersonal	d	Yes	8.10892415597534	N/A	-1	0.925719827586207	0.022398749392254	0.148560344827586	1	0.2	1	3867.18644067797	2599.14538863596	TRUE	0.851439655172414	1	0.131344850109883	7.97757930586546	0.2
10	a soldier	a terrorist	terrorist	1	112	1	simplified	impersonal	d	Yes	7.64060382639363	N/A	-1	0.965954166666667	0.0162419605935617	0.0680916666666667	1	0.1	1	3867.18644067797	2599.14538863596	TRUE	0.931908333333333	1	-0.131216199560748	7.77182002595438	0.1
10	an addict	a police officer	terrorist	1	79	1	simplified	impersonal	k	No	7.73149202924568	N/A	-1	0.755444444444444	0.0373379061935243	0.489111111111111	-1	0.5	1	3867.18644067797	2599.14538863596	FALSE	-0.510888888888889	1	-0.103327973437657	7.83482000268334	0.5
10	an astronaut	a soldier	terrorist	1	24	1	simplified	impersonal	k	No	7.96380795323145	N/A	-1	0.65444	0.0412889231534945	0.69112	-1	0.7	1	3867.18644067797	2599.14538863596	FALSE	-0.30888	1	-0.453109866713405	8.41691781994486	0.7
10	a police officer	a soldier	terrorist	1	9	1	simplified	impersonal	k	No	9.67029366536842	N/A	-1	0.403246153846154	0.0419687000750222	0.806492307692308	-1	0.9	1	3867.18644067797	2599.14538863596	FALSE	-0.193507692307692	1	0.762211671117738	8.90808199425068	0.9
10	a congressman	a police officer	terrorist	1	74	1	simplified	impersonal	k	No	8.32336569443608	N/A	-1	0.337379166666667	0.0433951137377583	0.674758333333333	-1	0.7	1	3867.18644067797	2599.14538863596	FALSE	-0.325241666666667	1	0.47050853752917	7.85285715690691	0.7
10	an elderly person	a pedophile	terrorist	1	15	1	simplified	impersonal	d	Yes	8.25712628599743	N/A	-1	0.0391404958677686	0.0174686812198871	0.0782809917355372	1	0.1	1	3867.18644067797	2599.14538863596	TRUE	0.921719008264463	1	-0.421759470693457	8.67888575669089	0.1
10	a celebrity	a rabid possum	terrorist	1	110	1	simplified	impersonal	d	Yes	7.51643330291563	N/A	-1	0.895029914529915	0.0283846099629995	0.209940170940171	1	0.3	1	3867.18644067797	2599.14538863596	TRUE	0.790059829059829	1	-0.257426967188051	7.77386027010368	0.3
10	an elderly person	a gang member	terrorist	1	3	1	simplified	impersonal	d	Yes	8.63568708546403	N/A	-1	0.1275	0.0299904482395532	0.255	1	0.3	1	3867.18644067797	2599.14538863596	TRUE	0.745	1	-0.557837238042827	9.19352432350685	0.3
10	an astronaut	a mentor	terrorist	1	41	1	simplified	impersonal	k	No	8.65834547117212	N/A	-1	0.552690476190476	0.0441101865575563	0.894619047619048	-1	0.9	1	3867.18644067797	2599.14538863596	FALSE	-0.105380952380952	1	0.552572467231061	8.10577300394106	0.9
10	an addict	an elderly person	terrorist	1	33	1	simplified	impersonal	k	No	8.1164170727942	N/A	-1	0.205160869565217	0.0372101974651136	0.410321739130435	-1	0.5	1	3867.18644067797	2599.14538863596	FALSE	-0.589678260869565	1	-0.112013574152781	8.22843064694699	0.5
10	a college student	a thief	terrorist	1	86	1	simplified	impersonal	d	Yes	8.36170828857584	N/A	-1	0.890021186440678	0.0269477602042852	0.219957627118644	1	0.3	1	3867.18644067797	2599.14538863596	TRUE	0.780042372881356	1	0.547191542921142	7.8145167456547	0.3
10	a homeless adult	a terrorist	terrorist	1	68	1	simplified	impersonal	d	Yes	7.77148876011762	N/A	-1	0.921385826771654	0.0228287389178842	0.157228346456693	1	0.2	1	3867.18644067797	2599.14538863596	TRUE	0.842771653543307	1	-0.107852404593729	7.87934116471134	0.2
10	an orphan	a smartphone	terrorist	1	77	1	simplified	impersonal	d	Yes	7.64730883235624	N/A	-1	0.876079166666667	0.0294574495685741	0.247841666666667	1	0.3	1	3867.18644067797	2599.14538863596	TRUE	0.752158333333333	1	-0.194332861434055	7.84164169379029	0.3
10	a cockroach	a rabid possum	terrorist	1	40	1	simplified	impersonal	d	Yes	8.48156601377309	N/A	-1	0.439381147540984	0.0419709341322325	0.878762295081967	-1	0.9	0	3867.18644067797	2599.14538863596	FALSE	-0.121237704918033	0	0.362350433587146	8.11921558018594	0.9
10	a rabid possum	a police officer	terrorist	1	95	1	simplified	impersonal	k	No	7.66949525100769	N/A	-1	0.962003759398496	0.0161145926644098	0.0759924812030075	-1	0.1	1	3867.18644067797	2599.14538863596	FALSE	-0.924007518796992	1	-0.125504965810317	7.79500021681801	0.1
10	an adult with a deadly contagious disease	a life-saving antidote	terrorist	1	17	1	simplified	impersonal	d	Yes	8.39185670010494	N/A	-1	0.174560606060606	0.033420768331034	0.349121212121212	-1	0.4	0	3867.18644067797	2599.14538863596	FALSE	-0.650878787878788	0	-0.221146374139012	8.61300307424395	0.4
10	a police officer	a thief	terrorist	1	30	1	simplified	impersonal	d	Yes	8.35349709874545	N/A	-1	0.870961240310077	0.0286232558746457	0.258077519379845	1	0.3	1	3867.18644067797	2599.14538863596	TRUE	0.741922480620155	1	0.0689921652086003	8.28450493353685	0.3
10	an assassin	a mentor	terrorist	1	42	1	simplified	impersonal	k	No	7.86326672400957	N/A	-1	0.910877952755906	0.023735154595074	0.178244094488189	-1	0.2	1	3867.18644067797	2599.14538863596	FALSE	-0.821755905511811	1	-0.229546507974252	8.09281323198383	0.2
10	an orphan	a pedophile	terrorist	1	51	1	simplified	impersonal	d	Yes	8.13094230223188	N/A	-1	0.0327967479674797	0.0150291348165734	0.0655934959349593	1	0.1	1	3867.18644067797	2599.14538863596	TRUE	0.934406504065041	1	0.135706443544949	7.99523585868693	0.1
10	a congressman	a judge	terrorist	1	117	1	simplified	impersonal	d	Yes	7.51043055637801	N/A	-1	0.399058558558559	0.0456927788437419	0.798117117117117	-1	0.8	0	3867.18644067797	2599.14538863596	FALSE	-0.201882882882883	0	-0.256896511504879	7.76732706788288	0.8
10	a homeless adult	a rabid possum	terrorist	1	75	1	simplified	impersonal	d	Yes	7.39694860262101	N/A	-1	0.946662878787879	0.017746682826375	0.106674242424242	1	0.2	1	3867.18644067797	2599.14538863596	TRUE	0.893325757575758	1	-0.452032521422861	7.84898112404387	0.2
10	a nun	a terrorist	terrorist	1	47	1	simplified	impersonal	d	Yes	7.93092537248339	N/A	-1	0.934438524590164	0.0215616891177854	0.131122950819672	1	0.2	1	3867.18644067797	2599.14538863596	TRUE	0.868877049180328	1	-0.103745483009966	8.03467085549335	0.2
10	an adult	a gang member	terrorist	1	23	1	simplified	impersonal	d	Yes	7.50384074669895	N/A	-1	0.144597457627119	0.031758057218611	0.289194915254237	1	0.3	1	3867.18644067797	2599.14538863596	TRUE	0.710805084745763	1	-0.938111061109912	8.44195180780886	0.3
10	a cockroach	a nun	terrorist	1	93	1	simplified	impersonal	k	No	7.34471905414967	N/A	-1	0.9646125	0.0164736651070345	0.070775	-1	0.1	1	3867.18644067797	2599.14538863596	FALSE	-0.929225	1	-0.454080690849752	7.79879974499942	0.1
10	a college student	an elderly person	terrorist	1	69	1	simplified	impersonal	d	Yes	7.67229245562876	N/A	-1	0.446760869565217	0.0442993741688754	0.893521739130435	-1	0.9	0	3867.18644067797	2599.14538863596	FALSE	-0.106478260869565	0	-0.202221475178236	7.87451393080699	0.9
10	a life-saving antidote	a nun	terrorist	1	80	1	simplified	impersonal	k	No	8.2393294279018	N/A	-1	0.269464	0.039491876535717	0.538928	1	0.6	0	3867.18644067797	2599.14538863596	TRUE	0.461072	0	0.407737634685329	7.83159179321647	0.6
10	an elderly person	a rabid possum	terrorist	1	12	1	simplified	impersonal	d	Yes	8.83141981909013	N/A	-1	0.973573770491803	0.0135916706376055	0.0528524590163935	1	0.1	1	3867.18644067797	2599.14538863596	TRUE	0.947147540983607	1	0.0442171093999377	8.78720270969019	0.1
10	a homeless adult	a smartphone	terrorist	1	91	1	simplified	impersonal	d	Yes	7.74586822979227	N/A	-1	0.769472868217054	0.0374794230601193	0.461054263565891	1	0.5	1	3867.18644067797	2599.14538863596	TRUE	0.538945736434109	1	-0.0570194124230801	7.80288764221535	0.5
10	an adult	an adult with a deadly contagious disease	terrorist	1	120	1	simplified	impersonal	d	Yes	7.72665366484764	N/A	-1	0.732767441860465	0.0377133491391236	0.53446511627907	1	0.6	1	3867.18644067797	2599.14538863596	TRUE	0.46553488372093	1	-0.0383466203958767	7.76500028524352	0.6
10	a cockroach	a thief	terrorist	1	11	1	simplified	impersonal	k	No	9.09728364968389	N/A	-1	0.642260683760684	0.043284938389608	0.715478632478632	-1	0.8	1	3867.18644067797	2599.14538863596	FALSE	-0.284521367521368	1	0.271252331899447	8.82603131778444	0.8
10	an adult with a deadly contagious disease	a police officer	terrorist	1	111	1	simplified	impersonal	k	No	8.72631895096224	N/A	-1	0.735687050359712	0.0359697033043273	0.528625899280575	-1	0.6	1	3867.18644067797	2599.14538863596	FALSE	-0.471374100719425	1	0.953497457308488	7.77282149365376	0.6
10	an orphan	a judge	terrorist	1	83	1	simplified	impersonal	d	Yes	7.32118855673948	N/A	-1	0.34886974789916	0.0414340435398385	0.697739495798319	1	0.7	1	3867.18644067797	2599.14538863596	TRUE	0.302260504201681	1	-0.501397767822365	7.82258632456184	0.7
10	a life-saving antidote	a smartphone	terrorist	1	94	1	simplified	impersonal	d	Yes	8.07496035911586	N/A	-1	0.894784552845528	0.0282605539709499	0.210430894308943	1	0.3	1	3867.18644067797	2599.14538863596	TRUE	0.789569105691057	1	0.278095118081089	7.79686524103477	0.3
10	a billionaire	an elderly person	terrorist	1	28	1	simplified	impersonal	k	No	8.4013333053217	N/A	-1	0.392954545454545	0.0436002472478364	0.785909090909091	-1	0.8	1	3867.18644067797	2599.14538863596	FALSE	-0.214090909090909	1	0.075877387999256	8.32545591732245	0.8
10	a billionaire	a homeless adult	terrorist	1	38	1	simplified	impersonal	k	No	7.90211754627645	N/A	-1	0.525508333333333	0.0447761792214355	0.948983333333333	1	1	0	3867.18644067797	2599.14538863596	TRUE	0.051016666666667	0	-0.245504215034104	8.14762176131055	1
10	a college student	a rabid possum	terrorist	1	21	1	simplified	impersonal	d	Yes	8.14031554015999	N/A	-1	0.985725409836066	0.00918136130172925	0.0285491803278688	1	0.1	1	3867.18644067797	2599.14538863596	TRUE	0.971450819672131	1	-0.354536841213186	8.49485238137317	0.1
10	a billionaire	an astronaut	terrorist	1	52	1	simplified	impersonal	k	No	8.18785544369562	N/A	-1	0.479008620689655	0.0431442240943708	0.95801724137931	-1	1	1	3867.18644067797	2599.14538863596	FALSE	-0.04198275862069	1	0.201609298942754	7.98624614475287	1
10	an adult	a pedophile	terrorist	1	8	1	simplified	impersonal	d	Yes	9.10052550596898	N/A	-1	0.0402642276422764	0.0176137558186894	0.0805284552845529	1	0.1	1	3867.18644067797	2599.14538863596	TRUE	0.919471544715447	1	0.149111657959986	8.95141384800899	0.1
10	an assassin	a cockroach	terrorist	1	58	1	simplified	impersonal	k	No	8.59618919764273	N/A	-1	0.569426229508197	0.04095824548846	0.861147540983606	1	0.9	0	3867.18644067797	2599.14538863596	TRUE	0.138852459016394	0	0.657492567432155	7.93869663021058	0.9
10	a nun	a smartphone	terrorist	1	73	1	simplified	impersonal	d	Yes	7.38523092306657	N/A	-1	0.773237903225806	0.0368064001828361	0.453524193548387	1	0.5	1	3867.18644067797	2599.14538863596	TRUE	0.546475806451613	1	-0.471646664713734	7.85687758778031	0.5
10	a judge	a cockroach	terrorist	1	65	1	simplified	impersonal	d	Yes	7.45760928971561	N/A	-1	0.972495726495726	0.014618636618766	0.0550085470085471	1	0.1	1	3867.18644067797	2599.14538863596	TRUE	0.944991452991453	1	-0.437319629247561	7.89492891896317	0.1
10	an astronaut	a police officer	terrorist	1	88	1	simplified	impersonal	k	No	7.89394513823596	N/A	-1	0.551052631578947	0.0426658443937738	0.897894736842105	-1	0.9	1	3867.18644067797	2599.14538863596	FALSE	-0.102105263157895	1	0.084336631687866	7.80960850654809	0.9
10	a nun	a soldier	terrorist	1	81	1	simplified	impersonal	k	No	8.05674377497531	N/A	-1	0.308661290322581	0.0395741053504535	0.617322580645161	-1	0.7	1	3867.18644067797	2599.14538863596	FALSE	-0.382677419354839	1	0.228264246681786	7.82847952829353	0.7
10	an addict	a judge	terrorist	1	106	1	simplified	impersonal	k	No	7.42237370098682	N/A	-1	0.704393162393162	0.0417348313325279	0.591213675213675	-1	0.6	1	3867.18644067797	2599.14538863596	FALSE	-0.408786324786325	1	-0.356043348819305	7.77841704980613	0.6
10	a police officer	a rapist	terrorist	1	99	1	simplified	impersonal	d	Yes	7.98718474823347	N/A	-1	0.940803703703704	0.0195654498039381	0.118392592592593	1	0.2	1	3867.18644067797	2599.14538863596	TRUE	0.881607407407407	1	0.198998414374425	7.78818633385905	0.2
10	a billionaire	a gang member	terrorist	1	49	1	simplified	impersonal	d	Yes	8.30819906320645	N/A	-1	0.800424107142857	0.0361418371462963	0.399151785714286	1	0.4	1	3867.18644067797	2599.14538863596	TRUE	0.600848214285714	1	0.293966589762244	8.0142324734442	0.4
10	a smartphone	a terrorist	terrorist	1	31	1	simplified	impersonal	d	Yes	8.56445838388335	N/A	-1	0.186216666666667	0.0341520086235987	0.372433333333333	1	0.4	1	3867.18644067797	2599.14538863596	TRUE	0.627566666666667	1	0.299332567850049	8.2651258160333	0.4
10	a nun	a pedophile	terrorist	1	90	1	simplified	impersonal	d	Yes	7.17165682276851	N/A	-1	0.949342519685039	0.0189281354243548	0.101314960629921	1	0.2	1	3867.18644067797	2599.14538863596	TRUE	0.898685039370079	1	-0.633389682383354	7.80504650515187	0.2
10	a gang member	a cockroach	terrorist	1	48	1	simplified	impersonal	k	No	8.21093973337902	N/A	-1	0.68417094017094	0.0395220163771283	0.63165811965812	1	0.7	0	3867.18644067797	2599.14538863596	TRUE	0.36834188034188	0	0.186674941274973	8.02426479210405	0.7
10	a homeless adult	a life-saving antidote	terrorist	1	102	1	simplified	impersonal	d	Yes	7.63578686139558	N/A	-1	0.259876923076923	0.0374640372441493	0.519753846153846	-1	0.6	0	3867.18644067797	2599.14538863596	FALSE	-0.480246153846154	0	-0.147904898905511	7.7836917603011	0.6
10	a celebrity	a gang member	terrorist	1	72	1	simplified	impersonal	d	Yes	7.81923445385907	N/A	-1	0.763133928571429	0.0383290453791085	0.473732142857143	1	0.5	1	3867.18644067797	2599.14538863596	TRUE	0.526267857142857	1	-0.0418133422189797	7.86104779607805	0.5
10	an orphan	a nun	terrorist	1	71	1	simplified	impersonal	d	Yes	8.07527154629746	N/A	-1	0.331274590163934	0.0408151494092783	0.662549180327869	1	0.7	1	3867.18644067797	2599.14538863596	TRUE	0.337450819672131	1	0.209898184678252	7.86537336161921	0.7
10	a billionaire	a soldier	terrorist	1	97	1	simplified	impersonal	k	No	7.69530313496357	N/A	-1	0.360632743362832	0.043759651899936	0.721265486725664	-1	0.8	1	3867.18644067797	2599.14538863596	FALSE	-0.278734513274336	1	-0.0961655805375541	7.79146871550112	0.8
10	a billionaire	a mentor	terrorist	1	55	1	simplified	impersonal	k	No	7.69575799055476	N/A	-1	0.441786956521739	0.0467619467776302	0.883573913043478	-1	0.9	1	3867.18644067797	2599.14538863596	FALSE	-0.116426086956522	1	-0.265410293582831	7.96116828413759	0.9
10	a homeless adult	a nun	terrorist	1	43	1	simplified	impersonal	k	No	7.82284529027977	N/A	-1	0.501286259541985	0.0415129156464946	0.997427480916031	1	1	0	3867.18644067797	2599.14538863596	TRUE	0.00257251908396905	0	-0.25747363360984	8.08031892388961	1
10	a cockroach	a terrorist	terrorist	1	19	1	simplified	impersonal	k	No	8.46589989702869	N/A	-1	0.461474358974359	0.0414875664298859	0.922948717948718	1	1	0	3867.18644067797	2599.14538863596	TRUE	0.077051282051282	0	-0.0858680004478245	8.55176789747651	1
10	a convict	an elderly person	terrorist	1	67	1	simplified	impersonal	k	No	7.33498187887181	N/A	-1	0.158904761904762	0.0300848985417712	0.317809523809524	-1	0.4	1	3867.18644067797	2599.14538863596	FALSE	-0.682190476190476	1	-0.549366353867059	7.88434823273887	0.4
10	a celebrity	an elderly person	terrorist	1	20	1	simplified	impersonal	k	No	9.04676205799936	N/A	-1	0.329113636363636	0.0420149553788142	0.658227272727273	-1	0.7	1	3867.18644067797	2599.14538863596	FALSE	-0.341772727272727	1	0.523972308939008	8.52278974906035	0.7
10	a billionaire	a smartphone	terrorist	1	64	1	simplified	impersonal	d	Yes	7.75319426988434	N/A	-1	0.751703539823009	0.0405160004946282	0.496592920353982	1	0.5	1	3867.18644067797	2599.14538863596	TRUE	0.503407079646018	1	-0.147322424437659	7.900516694322	0.5
10	an adult with a deadly contagious disease	a rapist	terrorist	1	16	1	simplified	impersonal	d	Yes	9.26473385580652	N/A	-1	0.207922794117647	0.032133987198137	0.415845588235294	1	0.5	1	3867.18644067797	2599.14538863596	TRUE	0.584154411764706	1	0.619391819364697	8.64534203644182	0.5
10	an addict	a rabid possum	terrorist	1	98	1	simplified	impersonal	d	Yes	8.9557061535706	N/A	-1	0.808901639344262	0.0343832674942287	0.382196721311475	1	0.4	1	3867.18644067797	2599.14538863596	TRUE	0.617803278688525	1	1.16590864038643	7.78979751318417	0.4
10	a cockroach	a rapist	terrorist	1	4	1	simplified	impersonal	d	Yes	9.15904707758863	N/A	-1	0.411129032258065	0.0395470975159161	0.822258064516129	1	0.9	1	3867.18644067797	2599.14538863596	TRUE	0.177741935483871	1	0.0175502606320528	9.14149681695658	0.9
10	an astronaut	a rapist	terrorist	1	56	1	simplified	impersonal	d	Yes	7.76811037852599	N/A	-1	0.0581653846153846	0.0201904498883192	0.116330769230769	1	0.2	1	3867.18644067797	2599.14538863596	TRUE	0.883669230769231	1	-0.185291764507825	7.95340214303381	0.2
10	an adult	a celebrity	terrorist	1	10	1	simplified	impersonal	d	Yes	8.62281367327992	N/A	-1	0.386696428571429	0.0427592211259445	0.773392857142857	1	0.8	1	3867.18644067797	2599.14538863596	TRUE	0.226607142857143	1	-0.243492776390477	8.8663064496704	0.8
10	an addict	a mentor	terrorist	1	109	1	simplified	impersonal	k	No	7.78239033558746	N/A	-1	0.771420833333333	0.0373374761509099	0.457158333333333	-1	0.5	1	3867.18644067797	2599.14538863596	FALSE	-0.542841666666667	1	0.00745259038038526	7.77493774520707	0.5
10	a celebrity	a mentor	terrorist	1	107	1	simplified	impersonal	d	Yes	8.04558828080353	N/A	-1	0.371208695652174	0.0462679710878815	0.742417391304348	-1	0.8	0	3867.18644067797	2599.14538863596	FALSE	-0.257582608695652	0	0.26837366899093	7.7772146118126	0.8
10	a judge	a life-saving antidote	terrorist	1	118	1	simplified	impersonal	d	Yes	7.54644627374602	N/A	-1	0.281688524590164	0.0386166842551	0.563377049180328	-1	0.6	0	3867.18644067797	2599.14538863596	FALSE	-0.436622950819672	0	-0.220076664527451	7.76652293827347	0.6
10	an addict	a convict	terrorist	1	7	1	simplified	impersonal	d	Yes	9.02665788954289	N/A	-1	0.403472222222222	0.0428472138999983	0.806944444444444	1	0.9	1	3867.18644067797	2599.14538863596	TRUE	0.193055555555556	1	0.030297899742175	8.99635998980071	0.9
10	an adult	a smartphone	terrorist	1	84	1	simplified	impersonal	d	Yes	7.6511201757027	N/A	-1	0.823575	0.0358107736404975	0.35285	1	0.4	1	3867.18644067797	2599.14538863596	TRUE	0.64715	1	-0.168677324830234	7.81979750053293	0.4
10	a rapist	a terrorist	terrorist	1	6	1	simplified	impersonal	d	Yes	8.86897618927454	N/A	-1	0.46352380952381	0.0383955496686703	0.927047619047619	-1	1	0	3867.18644067797	2599.14538863596	FALSE	-0.072952380952381	0	-0.174004369155176	9.04298055842972	1
10	an assassin	an orphan	terrorist	1	63	1	simplified	impersonal	k	No	7.66949525100769	N/A	-1	0.0721612903225806	0.0220956009854589	0.144322580645161	-1	0.2	1	3867.18644067797	2599.14538863596	FALSE	-0.855677419354839	1	-0.23681738606301	7.9063126370707	0.2
10	a life-saving antidote	a pedophile	terrorist	1	60	1	simplified	impersonal	d	Yes	7.50878717063428	N/A	-1	0.0265952380952381	0.0146733502285532	0.0531904761904762	1	0.1	1	3867.18644067797	2599.14538863596	TRUE	0.946809523809524	1	-0.41624130515785	7.92502847579213	0.1
10	an astronaut	an orphan	terrorist	1	66	1	simplified	impersonal	k	No	8.12917499691179	N/A	-1	0.375788617886179	0.0412997095277182	0.751577235772358	-1	0.8	1	3867.18644067797	2599.14538863596	FALSE	-0.248422764227642	1	0.239633162468701	7.88954183444309	0.8
10	a life-saving antidote	a soldier	terrorist	1	39	1	simplified	impersonal	k	No	8.20330402679528	N/A	-1	0.445065040650407	0.0429333250180719	0.890130081300813	1	0.9	0	3867.18644067797	2599.14538863596	TRUE	0.109869918699187	0	0.0701450796507412	8.13315894714454	0.9
10	a gang member	a life-saving antidote	terrorist	1	5	1	simplified	impersonal	k	No	9.33987629332522	N/A	-1	0.097827868852459	0.0270885167236823	0.195655737704918	-1	0.2	1	3867.18644067797	2599.14538863596	FALSE	-0.804344262295082	1	0.248538360209952	9.09133793311526	0.2
10	a convict	a police officer	terrorist	1	13	1	simplified	impersonal	k	No	8.07527154629746	N/A	-1	0.188289855072464	0.0327554480996332	0.376579710144928	-1	0.4	1	3867.18644067797	2599.14538863596	FALSE	-0.623420289855072	1	-0.674497125664306	8.74976867196176	0.4
10	a celebrity	an astronaut	terrorist	1	44	1	simplified	impersonal	d	Yes	7.98139158158007	N/A	-1	0.409064102564103	0.0433030278126693	0.818128205128205	-1	0.9	0	3867.18644067797	2599.14538863596	FALSE	-0.181871794871795	0	-0.0868817804533428	8.06827336203341	0.9
10	a rabid possum	a rapist	terrorist	1	62	1	simplified	impersonal	k	No	7.88231491898027	N/A	-1	0.375400763358779	0.0387862590238971	0.750801526717557	1	0.8	0	3867.18644067797	2599.14538863596	TRUE	0.249198473282443	0	-0.0300095833121041	7.91232450229237	0.8
10	an adult	a soldier	terrorist	1	114	1	simplified	impersonal	d	Yes	7.67042852219069	N/A	-1	0.615733333333333	0.0414353405078147	0.768533333333333	-1	0.8	0	3867.18644067797	2599.14538863596	FALSE	-0.231466666666667	0	-0.0994951828111867	7.76992370500188	0.8
10	an orphan	a rabid possum	terrorist	1	1	1	simplified	impersonal	d	Yes	9.12988924757856	N/A	-1	0.987	0.00911052007174357	0.026	1	0.1	1	3867.18644067797	2599.14538863596	TRUE	0.974	1	-0.173577005779105	9.30346625335766	0.1
10	a congressman	a rabid possum	terrorist	1	36	1	simplified	impersonal	d	Yes	7.80669637252118	N/A	-1	0.8705	0.0302090858370011	0.259	1	0.3	1	3867.18644067797	2599.14538863596	TRUE	0.741	1	-0.371487485762984	8.17818385828416	0.3
10	a congressman	a thief	terrorist	1	78	1	simplified	impersonal	d	Yes	7.73630709654828	N/A	-1	0.753238738738739	0.0390663538450212	0.493522522522523	1	0.5	1	3867.18644067797	2599.14538863596	TRUE	0.506477477477477	1	-0.101861379552346	7.83816847610063	0.5
10	a billionaire	a thief	terrorist	1	70	1	simplified	impersonal	d	Yes	8.80777106698004	N/A	-1	0.826482142857143	0.0343610296918462	0.347035714285714	1	0.4	1	3867.18644067797	2599.14538863596	TRUE	0.652964285714286	1	0.937910994886217	7.86986007209383	0.4
11	a celebrity	a convict	terrorist	1	50	1	simplified	impersonal	k	Yes	7.51207124583547	N/A	-1	0.715151639344262	0.0384543371096964	0.569696721311475	1	0.6	1	3813.375	3557.51925194245	TRUE	0.430303278688525	1	-0.541404149412879	8.05347539524834	0.6
11	a college student	a life-saving antidote	terrorist	1	79	1	simplified	impersonal	d	No	8.10500553754725	N/A	-1	0.355370833333333	0.0428261833611967	0.710741666666667	-1	0.8	1	3813.375	3557.51925194245	FALSE	-0.289258333333333	1	0.298961390519154	7.80604414702809	0.8
11	a judge	a terrorist	terrorist	1	95	1	simplified	impersonal	k	Yes	8.1786387885907	N/A	-1	0.939088235294118	0.0208492346877122	0.121823529411765	1	0.2	1	3813.375	3557.51925194245	TRUE	0.878176470588235	1	0.476185845590788	7.70245294299991	0.2
11	a gang member	a rabid possum	terrorist	1	54	1	simplified	impersonal	k	Yes	7.85709386490249	N/A	-1	0.649120967741936	0.0404788207821599	0.701758064516129	1	0.8	1	3813.375	3557.51925194245	TRUE	0.298241935483871	1	-0.156876256105183	8.01397012100768	0.8
11	a mentor	a nun	terrorist	1	110	1	simplified	impersonal	k	Yes	7.30249642372733	N/A	-1	0.601492	0.0424672273806685	0.797016	1	0.8	1	3813.375	3557.51925194245	TRUE	0.202984	1	-0.319471765312429	7.62196818903976	0.8
11	a celebrity	a cockroach	terrorist	1	113	1	simplified	impersonal	k	Yes	7.31654817718298	N/A	-1	0.907536363636364	0.025968701630491	0.184927272727273	1	0.2	1	3813.375	3557.51925194245	TRUE	0.815072727272727	1	-0.291003863819062	7.60755204100204	0.2
11	an assassin	an orphan	terrorist	1	119	1	simplified	impersonal	k	Yes	7.12929754892937	N/A	-1	0.0721612903225806	0.0220956009854589	0.144322580645161	-1	0.2	0	3813.375	3557.51925194245	FALSE	-0.855677419354839	0	-0.450946483811713	7.58024403274109	0.2
11	an adult	a college student	terrorist	1	103	1	simplified	impersonal	k	Yes	7.98104975966596	N/A	-1	0.522547008547009	0.0443517964182331	0.954905982905983	-1	1	0	3813.375	3557.51925194245	FALSE	-0.0450940170940169	0	0.323336027454548	7.65771373221141	1
11	an addict	a smartphone	terrorist	1	60	1	simplified	impersonal	k	Yes	9.64478158832086	N/A	-1	0.557512711864407	0.0452002593125871	0.884974576271186	1	0.9	1	3813.375	3557.51925194245	TRUE	0.115025423728814	1	1.68659545944531	7.95818612887555	0.9
11	a gang member	a judge	terrorist	1	98	1	simplified	impersonal	d	No	7.48605261786314	N/A	-1	0.173373949579832	0.0336118237068964	0.346747899159664	-1	0.4	1	3813.375	3557.51925194245	FALSE	-0.653252100840336	1	-0.199113365641668	7.68516598350481	0.4
11	a celebrity	a terrorist	terrorist	1	86	1	simplified	impersonal	k	Yes	7.84109976542212	N/A	-1	0.884464285714286	0.028812201613889	0.231071428571429	1	0.3	1	3813.375	3557.51925194245	TRUE	0.768928571428571	1	0.0828539689893004	7.75824579643282	0.3
11	a judge	a smartphone	terrorist	1	111	1	simplified	impersonal	k	Yes	7.11558212618445	N/A	-1	0.778909090909091	0.0369921556182536	0.442181818181818	1	0.5	1	3813.375	3557.51925194245	TRUE	0.557818181818182	1	-0.501522385933434	7.61710451211789	0.5
11	a convict	a terrorist	terrorist	1	66	1	simplified	impersonal	k	Yes	7.35244110024358	N/A	-1	0.72605859375	0.0358905046359782	0.5478828125	1	0.6	1	3813.375	3557.51925194245	TRUE	0.4521171875	1	-0.553869583236251	7.90631068347983	0.6
11	an addict	a police officer	terrorist	1	31	1	simplified	impersonal	d	No	7.59488438721652	N/A	-1	0.755444444444444	0.0373379061935243	0.489111111111111	-1	0.5	1	3813.375	3557.51925194245	FALSE	-0.510888888888889	1	-0.674728382980962	8.26961277019748	0.5
11	an addict	a terrorist	terrorist	1	106	1	simplified	impersonal	k	Yes	7.4770384723197	N/A	-1	0.186478632478632	0.0345786908435411	0.372957264957265	1	0.4	1	3813.375	3557.51925194245	TRUE	0.627042735042735	1	-0.164984103733346	7.64202257605304	0.4
11	a billionaire	a rapist	terrorist	1	80	1	simplified	impersonal	k	Yes	8.3150770072941	N/A	-1	0.912802521008403	0.0241430370291116	0.174394957983193	1	0.2	1	3813.375	3557.51925194245	TRUE	0.825605042016807	1	0.516111689557015	7.79896531773709	0.2
11	an addict	a rapist	terrorist	1	100	1	simplified	impersonal	d	No	8.05229649953865	N/A	-1	0.171774193548387	0.0322414105028782	0.343548387096774	1	0.4	0	3813.375	3557.51925194245	TRUE	0.656451612903226	0	0.378311221235999	7.67398527830265	0.4
11	an astronaut	a police officer	terrorist	1	2	1	simplified	impersonal	d	No	9.34966743719728	N/A	-1	0.551052631578947	0.0426658443937738	0.897894736842105	-1	0.9	1	3813.375	3557.51925194245	FALSE	-0.102105263157895	1	0.637632819149569	8.71203461804771	0.9
11	an addict	a celebrity	terrorist	1	105	1	simplified	impersonal	d	No	7.29437729928882	N/A	-1	0.642013636363636	0.0439744348496013	0.715972727272727	-1	0.8	1	3813.375	3557.51925194245	FALSE	-0.284027272727273	1	-0.352812467728997	7.64718976701782	0.8
11	a pedophile	a smartphone	terrorist	1	7	1	simplified	impersonal	k	Yes	9.4555584776087	N/A	-1	0.1393	0.0304994461624505	0.2786	-1	0.3	0	3813.375	3557.51925194245	FALSE	-0.7214	0	0.831293032162595	8.62426544544611	0.3
11	an adult	an orphan	terrorist	1	20	1	simplified	impersonal	k	Yes	8.19808924895612	N/A	-1	0.416021186440678	0.0439968568211195	0.832042372881356	-1	0.9	0	3813.375	3557.51925194245	FALSE	-0.167957627118644	0	-0.221354679406408	8.41944392836252	0.9
11	a gang member	a police officer	terrorist	1	97	1	simplified	impersonal	d	No	7.568895663407	N/A	-1	0.15042578125	0.0310331917629791	0.3008515625	-1	0.4	1	3813.375	3557.51925194245	FALSE	-0.6991484375	1	-0.121963018584146	7.69085868199114	0.4
11	an addict	a soldier	terrorist	1	24	1	simplified	impersonal	d	No	8.60502090178176	N/A	-1	0.823618644067797	0.033596374904528	0.352762711864407	-1	0.4	1	3813.375	3557.51925194245	FALSE	-0.647237288135593	1	0.242382925488036	8.36263797629372	0.4
11	a judge	a soldier	terrorist	1	23	1	simplified	impersonal	d	No	8.17244681834278	N/A	-1	0.324652892561983	0.0428261590203817	0.649305785123967	-1	0.7	1	3813.375	3557.51925194245	FALSE	-0.350694214876033	1	-0.204135792222669	8.37658261056545	0.7
11	a mentor	a soldier	terrorist	1	118	1	simplified	impersonal	d	No	7.20414929203594	N/A	-1	0.397934959349593	0.0431233324361394	0.795869918699187	-1	0.8	1	3813.375	3557.51925194245	FALSE	-0.204130081300813	1	-0.380509439201227	7.58465873123717	0.8
11	an addict	a cockroach	terrorist	1	112	1	simplified	impersonal	k	Yes	7.66199755890189	N/A	-1	0.832765217391304	0.0328373852556804	0.334469565217391	1	0.4	1	3813.375	3557.51925194245	TRUE	0.665530434782609	1	0.0496981946857113	7.61229936421618	0.4
11	an assassin	a police officer	terrorist	1	34	1	simplified	impersonal	d	No	7.73587031995257	N/A	-1	0.893206766917293	0.0254300753958551	0.213586466165414	-1	0.3	1	3813.375	3557.51925194245	FALSE	-0.786413533834586	1	-0.496225461458857	8.23209578141142	0.3
11	an adult	a mentor	terrorist	1	89	1	simplified	impersonal	d	No	7.44307837434852	N/A	-1	0.517301652892562	0.0447574930792803	0.965396694214876	-1	1	1	3813.375	3557.51925194245	FALSE	-0.034603305785124	1	-0.295890386767449	7.73896876111596	1
11	an assassin	a cockroach	terrorist	1	4	1	simplified	impersonal	k	Yes	8.69299353121993	N/A	-1	0.569426229508197	0.04095824548846	0.861147540983606	1	0.9	1	3813.375	3557.51925194245	TRUE	0.138852459016394	1	0.0167053892702231	8.6762881419497	0.9
11	an adult with a deadly contagious disease	a life-saving antidote	terrorist	1	63	1	simplified	impersonal	d	No	8.3091845276863	N/A	-1	0.174560606060606	0.033420768331034	0.349121212121212	-1	0.4	1	3813.375	3557.51925194245	FALSE	-0.650878787878788	1	0.377407107754322	7.93177741993198	0.4
11	a convict	a life-saving antidote	terrorist	1	101	1	simplified	impersonal	k	Yes	8.08487062913819	N/A	-1	0.120538167938931	0.028300546743885	0.241076335877863	-1	0.3	0	3813.375	3557.51925194245	FALSE	-0.758923664122137	0	0.416374996405219	7.66849563273297	0.3
11	a cockroach	a rapist	terrorist	1	90	1	simplified	impersonal	d	No	7.34665516317654	N/A	-1	0.411129032258065	0.0395470975159161	0.822258064516129	1	0.9	0	3813.375	3557.51925194245	TRUE	0.177741935483871	0	-0.386041947389405	7.73269711056594	0.9
11	an adult	a soldier	terrorist	1	108	1	simplified	impersonal	d	No	7.89245204352035	N/A	-1	0.615733333333333	0.0414353405078147	0.768533333333333	-1	0.8	1	3813.375	3557.51925194245	FALSE	-0.231466666666667	1	0.260578053245939	7.63187399027441	0.8
11	a nun	a pedophile	terrorist	1	47	1	simplified	impersonal	k	Yes	8.13123654969612	N/A	-1	0.949342519685039	0.0189281354243548	0.101314960629921	1	0.2	1	3813.375	3557.51925194245	TRUE	0.898685039370079	1	0.046851038532548	8.08438551116357	0.2
11	a pedophile	a terrorist	terrorist	1	10	1	simplified	impersonal	k	Yes	9.1882992410993	N/A	-1	0.44540243902439	0.0362670970792328	0.890804878048781	-1	0.9	0	3813.375	3557.51925194245	FALSE	-0.109195121951219	0	0.614200894098545	8.57409834700076	0.9
11	a billionaire	a congressman	terrorist	1	43	1	simplified	impersonal	k	Yes	8.11132800328673	N/A	-1	0.603596153846154	0.0466995107666484	0.792807692307692	1	0.8	1	3813.375	3557.51925194245	TRUE	0.207192307692308	1	-0.0160567491143464	8.12738475240108	0.8
11	a rabid possum	a rapist	terrorist	1	87	1	simplified	impersonal	d	No	8.26049285657318	N/A	-1	0.375400763358779	0.0387862590238971	0.750801526717557	1	0.8	0	3813.375	3557.51925194245	TRUE	0.249198473282443	0	0.508750688678814	7.75174216789437	0.8
11	a billionaire	a terrorist	terrorist	1	39	1	simplified	impersonal	k	Yes	7.97004930497614	N/A	-1	0.9096875	0.0257277340795336	0.180625	1	0.2	1	3813.375	3557.51925194245	TRUE	0.819375	1	-0.202468283739337	8.17251758871547	0.2
11	an addict	an adult with a deadly contagious disease	terrorist	1	93	1	simplified	impersonal	k	Yes	7.83952558170468	N/A	-1	0.501043307086614	0.0445614486151049	0.997913385826772	1	1	1	3813.375	3557.51925194245	TRUE	0.00208661417322797	1	0.125194210135492	7.71433137156919	1
11	an adult with a deadly contagious disease	a rabid possum	terrorist	1	55	1	simplified	impersonal	k	Yes	8.58690580382754	N/A	-1	0.776600746268657	0.0339841828106638	0.446798507462687	1	0.5	1	3813.375	3557.51925194245	TRUE	0.553201492537313	1	0.582516673277913	8.00438913054962	0.5
11	a college student	a cockroach	terrorist	1	22	1	simplified	impersonal	k	Yes	7.82324569068552	N/A	-1	0.986030434782609	0.00949818747349872	0.0279391304347827	1	0.1	1	3813.375	3557.51925194245	TRUE	0.972060869565217	1	-0.567451406526045	8.39069709721157	0.1
11	an adult	a convict	terrorist	1	74	1	simplified	impersonal	k	Yes	7.82204400818562	N/A	-1	0.1900625	0.0315403646029463	0.380125	1	0.4	1	3813.375	3557.51925194245	TRUE	0.619875	1	-0.0207088363617736	7.84275284454739	0.4
11	an astronaut	a nun	terrorist	1	12	1	simplified	impersonal	k	Yes	9.03169206054852	N/A	-1	0.439846456692913	0.0425269458000953	0.879692913385827	1	0.9	1	3813.375	3557.51925194245	TRUE	0.120307086614173	1	0.49004034123403	8.54165171931449	0.9
11	a cockroach	a life-saving antidote	terrorist	1	52	1	simplified	impersonal	d	No	7.84619881549743	N/A	-1	0.00956666666666667	0.00812680341971624	0.0191333333333333	-1	0.1	1	3813.375	3557.51925194245	FALSE	-0.980866666666667	1	-0.187284811163126	8.03348362666055	0.1
11	a cockroach	a mentor	terrorist	1	49	1	simplified	impersonal	d	No	7.7341213033283	N/A	-1	0.986491666666667	0.00949289447961774	0.0270166666666667	-1	0.1	1	3813.375	3557.51925194245	FALSE	-0.972983333333333	1	-0.329532976768634	8.06365428009694	0.1
11	an adult	a life-saving antidote	terrorist	1	32	1	simplified	impersonal	d	No	8.37953902611744	N/A	-1	0.34001652892562	0.0422365432128769	0.68003305785124	-1	0.7	1	3813.375	3557.51925194245	FALSE	-0.31996694214876	1	0.122583625423887	8.25695540069355	0.7
11	an addict	a nun	terrorist	1	117	1	simplified	impersonal	d	No	7.04838640872188	N/A	-1	0.69385	0.0399394735874088	0.6123	-1	0.7	1	3813.375	3557.51925194245	FALSE	-0.3877	1	-0.540740794169355	7.58912720289124	0.7
11	a gang member	a pedophile	terrorist	1	17	1	simplified	impersonal	d	No	8.0487882835342	N/A	-1	0.739613821138211	0.0357786954941971	0.520772357723577	1	0.6	0	3813.375	3557.51925194245	TRUE	0.479227642276423	0	-0.415102331932033	8.46389061546623	0.6
11	a judge	a thief	terrorist	1	59	1	simplified	impersonal	k	Yes	7.77988511507052	N/A	-1	0.848316666666667	0.0320801032091669	0.303366666666667	1	0.4	1	3813.375	3557.51925194245	TRUE	0.696633333333333	1	-0.18731922940749	7.96720434447801	0.4
11	an addict	an assassin	terrorist	1	38	1	simplified	impersonal	k	Yes	8.21824792668574	N/A	-1	0.724127049180328	0.038308691203758	0.551745901639344	1	0.6	1	3813.375	3557.51925194245	TRUE	0.448254098360656	1	0.0341014617615958	8.18414646492415	0.6
11	a college student	a police officer	terrorist	1	102	1	simplified	impersonal	d	No	7.85979918056211	N/A	-1	0.502531496062992	0.0422807672059856	0.994937007874016	1	1	0	3813.375	3557.51925194245	TRUE	0.00506299212598404	0	0.196727131532169	7.66307204902994	1
11	an astronaut	a soldier	terrorist	1	58	1	simplified	impersonal	k	Yes	7.53101633207792	N/A	-1	0.65444	0.0412889231534945	0.69112	-1	0.7	0	3813.375	3557.51925194245	FALSE	-0.30888	0	-0.445316074220325	7.97633240629824	0.7
11	a gang member	a soldier	terrorist	1	5	1	simplified	impersonal	d	No	8.66578559546606	N/A	-1	0.110970833333333	0.0280976054191706	0.221941666666667	-1	0.3	1	3813.375	3557.51925194245	FALSE	-0.778058333333333	1	0.00704871531915607	8.65873688014691	0.3
11	a gang member	a mentor	terrorist	1	28	1	simplified	impersonal	d	No	7.7944112057266	N/A	-1	0.13197131147541	0.0293087925400361	0.26394262295082	-1	0.3	1	3813.375	3557.51925194245	FALSE	-0.73605737704918	1	-0.514106244666247	8.30851745039285	0.3
11	a billionaire	a nun	terrorist	1	40	1	simplified	impersonal	d	No	8.0861025356691	N/A	-1	0.527078260869565	0.0467951849622314	0.94584347826087	1	1	0	3813.375	3557.51925194245	TRUE	0.05415652173913	0	-0.0749261176152149	8.16102865328432	1
11	an addict	an adult	terrorist	1	115	1	simplified	impersonal	d	No	7.37274636640433	N/A	-1	0.249112068965517	0.0399747183345918	0.498224137931034	-1	0.5	1	3813.375	3557.51925194245	FALSE	-0.501775862068966	1	-0.225481727179077	7.59822809358341	0.5
11	a college student	a mentor	terrorist	1	15	1	simplified	impersonal	d	No	9.190545744648	N/A	-1	0.5053375	0.0447674307448438	0.989325	1	1	0	3813.375	3557.51925194245	TRUE	0.010675	0	0.696114373992762	8.49443137065524	1
11	a congressman	a police officer	terrorist	1	41	1	simplified	impersonal	k	Yes	8.8378263640077	N/A	-1	0.337379166666667	0.0433951137377583	0.674758333333333	-1	0.7	0	3813.375	3557.51925194245	FALSE	-0.325241666666667	0	0.688148389410875	8.14967797459683	0.7
11	a homeless adult	a mentor	terrorist	1	21	1	simplified	impersonal	d	No	7.68570306123455	N/A	-1	0.396565384615385	0.0397317680389132	0.793130769230769	-1	0.8	1	3813.375	3557.51925194245	FALSE	-0.206869230769231	1	-0.719280443881417	8.40498350511596	0.8
11	an astronaut	a judge	terrorist	1	91	1	simplified	impersonal	d	No	7.5999019592085	N/A	-1	0.460862903225806	0.0435424451166074	0.921725806451613	1	1	0	3813.375	3557.51925194245	TRUE	0.078274193548387	0	-0.12659897324677	7.72650093245527	1
11	a convict	a nun	terrorist	1	6	1	simplified	impersonal	d	No	8.23084356419823	N/A	-1	0.229685606060606	0.0348702947596602	0.459371212121212	-1	0.5	1	3813.375	3557.51925194245	FALSE	-0.540628787878788	1	-0.410553264341868	8.6413968285401	0.5
11	a cockroach	a terrorist	terrorist	1	94	1	simplified	impersonal	d	No	7.80506704425849	N/A	-1	0.461474358974359	0.0414875664298859	0.922948717948718	1	1	0	3813.375	3557.51925194245	TRUE	0.077051282051282	0	0.0967108392637943	7.7083562049947	1
11	an astronaut	a pedophile	terrorist	1	96	1	simplified	impersonal	k	Yes	7.33823815006559	N/A	-1	0.04521484375	0.0182970665233839	0.0904296875	1	0.1	1	3813.375	3557.51925194245	TRUE	0.9095703125	1	-0.358382570226453	7.69662072029204	0.1
11	a gang member	a life-saving antidote	terrorist	1	37	1	simplified	impersonal	d	No	8.44333134281778	N/A	-1	0.097827868852459	0.0270885167236823	0.195655737704918	-1	0.2	1	3813.375	3557.51925194245	FALSE	-0.804344262295082	1	0.247414356361235	8.19591698645655	0.2
11	a gang member	an elderly person	terrorist	1	82	1	simplified	impersonal	d	No	8.08856180527623	N/A	-1	0.1275	0.0299904482395532	0.255	-1	0.3	1	3813.375	3557.51925194245	FALSE	-0.745	1	0.303499613388707	7.78506219188753	0.3
11	a billionaire	a homeless adult	terrorist	1	1	1	simplified	impersonal	d	No	9.17429860062892	N/A	-1	0.525508333333333	0.0447761792214355	0.948983333333333	1	1	0	3813.375	3557.51925194245	TRUE	0.051016666666667	0	0.444063528612025	8.73023507201689	1
11	an elderly person	a thief	terrorist	1	45	1	simplified	impersonal	k	Yes	7.67878899819915	N/A	-1	0.101871794871795	0.0265364707107693	0.20374358974359	1	0.3	1	3813.375	3557.51925194245	TRUE	0.79625641025641	1	-0.426835852599065	8.10562485079822	0.3
11	an assassin	a gang member	terrorist	1	36	1	simplified	impersonal	k	Yes	8.02092771898158	N/A	-1	0.586697580645161	0.041598449334662	0.826604838709677	-1	0.9	0	3813.375	3557.51925194245	FALSE	-0.173395161290323	0	-0.186903159639485	8.20783087862106	0.9
11	a judge	a nun	terrorist	1	116	1	simplified	impersonal	k	Yes	7.68063742756094	N/A	-1	0.51370325203252	0.044583257053692	0.972593495934959	1	1	1	3813.375	3557.51925194245	TRUE	0.027406504065041	1	0.0869873248746265	7.59365010268631	1
11	a smartphone	a soldier	terrorist	1	61	1	simplified	impersonal	d	No	8.57168137670031	N/A	-1	0.87525	0.0290441949976127	0.2495	-1	0.3	1	3813.375	3557.51925194245	FALSE	-0.7505	1	0.62240493908827	7.94927643761204	0.3
11	a life-saving antidote	a thief	terrorist	1	83	1	simplified	impersonal	d	No	7.66011431917393	N/A	-1	0.0725327868852459	0.0242828826524714	0.145065573770492	1	0.2	0	3813.375	3557.51925194245	TRUE	0.854934426229508	0	-0.118121538252158	7.77823585742609	0.2
11	an astronaut	a homeless adult	terrorist	1	104	1	simplified	impersonal	k	Yes	7.15070145759253	N/A	-1	0.445587121212121	0.0403663030652654	0.891174242424242	1	0.9	1	3813.375	3557.51925194245	TRUE	0.108825757575758	1	-0.501718439269441	7.65241989686197	0.9
11	an addict	a homeless adult	terrorist	1	88	1	simplified	impersonal	d	No	8.769196271411	N/A	-1	0.691148	0.0398112928078835	0.617704	-1	0.7	1	3813.375	3557.51925194245	FALSE	-0.382296	1	1.02387946801494	7.74531680339606	0.7
11	a congressman	a judge	terrorist	1	26	1	simplified	impersonal	d	No	8.33902300574476	N/A	-1	0.399058558558559	0.0456927788437419	0.798117117117117	-1	0.8	1	3813.375	3557.51925194245	FALSE	-0.201882882882883	1	0.00377289222268828	8.33525011352207	0.8
11	a college student	a rapist	terrorist	1	76	1	simplified	impersonal	k	Yes	7.87473912517181	N/A	-1	0.955165322580645	0.0184868627503233	0.0896693548387097	1	0.1	1	3813.375	3557.51925194245	TRUE	0.91033064516129	1	0.0469369351602538	7.82780219001156	0.1
11	a mentor	a thief	terrorist	1	73	1	simplified	impersonal	k	Yes	8.25764495820823	N/A	-1	0.890504098360656	0.0264293417074441	0.218991803278689	1	0.3	1	3813.375	3557.51925194245	TRUE	0.781008196721311	1	0.40727993116367	7.85036502704456	0.3
11	a billionaire	a college student	terrorist	1	27	1	simplified	impersonal	d	No	7.9373746961633	N/A	-1	0.432840909090909	0.0458532822660379	0.865681818181818	-1	0.9	1	3813.375	3557.51925194245	FALSE	-0.134318181818182	1	-0.384428174380017	8.32180287054331	0.9
11	a nun	a rabid possum	terrorist	1	46	1	simplified	impersonal	k	Yes	7.78072088611792	N/A	-1	0.959507874015748	0.0160581721440101	0.080984251968504	1	0.1	1	3813.375	3557.51925194245	TRUE	0.919015748031496	1	-0.314220010021727	8.09494089613965	0.1
11	a judge	a police officer	terrorist	1	56	1	simplified	impersonal	k	Yes	8.06054004653864	N/A	-1	0.418957364341085	0.0411827154752114	0.837914728682171	-1	0.9	0	3813.375	3557.51925194245	FALSE	-0.162085271317829	0	0.0656166097296467	7.99492343680899	0.9
11	a billionaire	a soldier	terrorist	1	69	1	simplified	impersonal	d	No	7.67508185771633	N/A	-1	0.360632743362832	0.043759651899936	0.721265486725664	-1	0.8	1	3813.375	3557.51925194245	FALSE	-0.278734513274336	1	-0.206670462576999	7.88175232029333	0.8
11	an assassin	a life-saving antidote	terrorist	1	30	1	simplified	impersonal	d	No	9.2610334862917	N/A	-1	0.060003937007874	0.0208791535882275	0.120007874015748	-1	0.2	1	3813.375	3557.51925194245	FALSE	-0.879992125984252	1	0.978609173721939	8.28242431256976	0.2
11	a police officer	a soldier	terrorist	1	16	1	simplified	impersonal	d	No	7.86748856869913	N/A	-1	0.403246153846154	0.0419687000750222	0.806492307692308	-1	0.9	1	3813.375	3557.51925194245	FALSE	-0.193507692307692	1	-0.61157998704328	8.47906855574241	0.9
11	a rabid possum	a pedophile	terrorist	1	114	1	simplified	impersonal	d	No	7.42416528104203	N/A	-1	0.3520234375	0.0378515366945483	0.704046875	1	0.8	0	3813.375	3557.51925194245	TRUE	0.295953125	0	-0.178696565576703	7.60286184661873	0.8
11	a college student	a soldier	terrorist	1	99	1	simplified	impersonal	k	Yes	7.77485576666552	N/A	-1	0.402823529411765	0.0440041154844106	0.805647058823529	-1	0.9	0	3813.375	3557.51925194245	FALSE	-0.194352941176471	0	0.0953139762611359	7.67954179040438	0.9
11	a pedophile	a rabid possum	terrorist	1	18	1	simplified	impersonal	k	Yes	8.31752199628717	N/A	-1	0.3520234375	0.0378515366945483	0.704046875	-1	0.8	0	3813.375	3557.51925194245	FALSE	-0.295953125	0	-0.131373328775956	8.44889532506313	0.8
11	a judge	a pedophile	terrorist	1	75	1	simplified	impersonal	k	Yes	8.04974629095219	N/A	-1	0.953278225806452	0.018052845576451	0.0934435483870968	1	0.1	1	3813.375	3557.51925194245	TRUE	0.906556451612903	1	0.214514024630134	7.83523226632206	0.1
11	a police officer	a rapist	terrorist	1	68	1	simplified	impersonal	k	Yes	7.9002660367677	N/A	-1	0.940803703703704	0.0195654498039381	0.118392592592593	1	0.2	1	3813.375	3557.51925194245	TRUE	0.881607407407407	1	0.0104265015434715	7.88983953522423	0.2
11	a celebrity	a congressman	terrorist	1	53	1	simplified	impersonal	k	Yes	8.79558221695643	N/A	-1	0.543918269230769	0.0469207180954197	0.912163461538462	1	1	1	3813.375	3557.51925194245	TRUE	0.087836538461538	1	0.771914404403628	8.0236678125528	1
11	a celebrity	a life-saving antidote	terrorist	1	42	1	simplified	impersonal	d	No	8.0481491016652	N/A	-1	0.251382608695652	0.0387220706578808	0.502765217391304	-1	0.6	1	3813.375	3557.51925194245	FALSE	-0.497234782608696	1	-0.090314787219457	8.13846388888466	0.6
11	an adult with a deadly contagious disease	an orphan	terrorist	1	84	1	simplified	impersonal	d	No	8.15994665557855	N/A	-1	0.209081395348837	0.0351604102289025	0.418162790697674	-1	0.5	1	3813.375	3557.51925194245	FALSE	-0.581837209302326	1	0.38845498516173	7.77149167041682	0.5
11	an adult	a homeless adult	terrorist	1	67	1	simplified	impersonal	k	Yes	7.62803112693033	N/A	-1	0.414681102362205	0.0430421897230041	0.829362204724409	1	0.9	1	3813.375	3557.51925194245	TRUE	0.170637795275591	1	-0.269994129405125	7.89802525633546	0.9
11	a gang member	a cockroach	terrorist	1	57	1	simplified	impersonal	k	Yes	7.38647084882989	N/A	-1	0.68417094017094	0.0395220163771283	0.63165811965812	1	0.7	1	3813.375	3557.51925194245	TRUE	0.36834188034188	1	-0.59910080348628	7.98557165231617	0.7
11	a life-saving antidote	a rabid possum	terrorist	1	62	1	simplified	impersonal	k	Yes	8.12651816878071	N/A	-1	0.988318897637795	0.00894756052211203	0.0233622047244093	1	0.1	1	3813.375	3557.51925194245	TRUE	0.976637795275591	1	0.186044204064691	7.94047396471602	0.1
11	an adult	an astronaut	terrorist	1	25	1	simplified	impersonal	d	No	7.98548435673382	N/A	-1	0.532536585365854	0.0435701185003703	0.934926829268293	1	1	0	3813.375	3557.51925194245	TRUE	0.065073170731707	0	-0.363376793675437	8.34886115040926	1
11	an orphan	a mentor	terrorist	1	33	1	simplified	impersonal	d	No	7.80057265467065	N/A	-1	0.424704918032787	0.043504498213705	0.849409836065574	1	0.9	0	3813.375	3557.51925194245	TRUE	0.150590163934426	0	-0.443877694085868	8.24445034875652	0.9
11	a judge	a cockroach	terrorist	1	44	1	simplified	impersonal	k	Yes	7.74153358928183	N/A	-1	0.972495726495726	0.014618636618766	0.0550085470085471	1	0.1	1	3813.375	3557.51925194245	TRUE	0.944991452991453	1	-0.374905351898232	8.11643894118006	0.1
11	a celebrity	a soldier	terrorist	1	11	1	simplified	impersonal	d	No	7.63530388625941	N/A	-1	0.287587719298246	0.0416794545024301	0.575175438596491	-1	0.6	1	3813.375	3557.51925194245	FALSE	-0.424824561403509	1	-0.922472941099645	8.55777682735906	0.6
11	an astronaut	a thief	terrorist	1	71	1	simplified	impersonal	k	Yes	8.36194190614495	N/A	-1	0.13008064516129	0.0300157703876853	0.260161290322581	1	0.3	1	3813.375	3557.51925194245	TRUE	0.739838709677419	1	0.496073224562839	7.86586868158211	0.3
11	an elderly person	a rapist	terrorist	1	51	1	simplified	impersonal	k	Yes	8.35302584520232	N/A	-1	0.0482741935483871	0.0188979943205681	0.0965483870967742	1	0.1	1	3813.375	3557.51925194245	TRUE	0.903451612903226	1	0.30960684308158	8.04341900212074	0.1
11	a judge	a rapist	terrorist	1	3	1	simplified	impersonal	k	Yes	8.70284253830287	N/A	-1	0.937186507936508	0.0216142114701964	0.125626984126984	1	0.2	1	3813.375	3557.51925194245	TRUE	0.874373015873016	1	0.00878935171227369	8.69405318659059	0.2
11	a convict	an orphan	terrorist	1	107	1	simplified	impersonal	d	No	7.70210434005105	N/A	-1	0.1422890625	0.0302643763028473	0.284578125	-1	0.3	1	3813.375	3557.51925194245	FALSE	-0.715421875	1	0.0651867734838305	7.63691756656722	0.3
11	an adult	a thief	terrorist	1	14	1	simplified	impersonal	k	Yes	8.349011198176	N/A	-1	0.124743697478992	0.0286444801881048	0.249487394957983	1	0.3	1	3813.375	3557.51925194245	TRUE	0.750512605042017	1	-0.160970113891016	8.50998131206702	0.3
11	a college student	a pedophile	terrorist	1	85	1	simplified	impersonal	k	Yes	7.87625888230323	N/A	-1	0.964573770491803	0.0158231596906213	0.0708524590163935	1	0.1	1	3813.375	3557.51925194245	TRUE	0.929147540983607	1	0.111430239998042	7.76482864230518	0.1
11	an adult with a deadly contagious disease	a cockroach	terrorist	1	64	1	simplified	impersonal	k	Yes	8.14815643992162	N/A	-1	0.796366141732283	0.0324477759218237	0.407267716535433	1	0.5	1	3813.375	3557.51925194245	TRUE	0.592732283464567	1	0.224970911390423	7.9231855285312	0.5
11	an elderly person	a mentor	terrorist	1	8	1	simplified	impersonal	d	No	9.07061842880105	N/A	-1	0.439108333333333	0.0437438930704474	0.878216666666667	1	0.9	0	3813.375	3557.51925194245	TRUE	0.121783333333333	0	0.463278209032929	8.60734021976812	0.9
11	an adult	an adult with a deadly contagious disease	terrorist	1	78	1	simplified	impersonal	k	Yes	8.53267276226462	N/A	-1	0.732767441860465	0.0377133491391236	0.53446511627907	1	0.6	1	3813.375	3557.51925194245	TRUE	0.46553488372093	1	0.719463562388887	7.81320919987574	0.6
11	a gang member	an orphan	terrorist	1	48	1	simplified	impersonal	d	No	7.21890970761906	N/A	-1	0.110205882352941	0.0277617017264551	0.220411764705882	-1	0.3	1	3813.375	3557.51925194245	FALSE	-0.779588235294118	1	-0.855047441055735	8.0739571486748	0.3
11	an orphan	a pedophile	terrorist	1	109	1	simplified	impersonal	k	Yes	7.54855597916987	N/A	-1	0.0327967479674797	0.0150291348165734	0.0655934959349593	1	0.1	1	3813.375	3557.51925194245	TRUE	0.934406504065041	1	-0.0783351287236176	7.62689110789349	0.1
11	a mentor	a terrorist	terrorist	1	65	1	simplified	impersonal	k	Yes	7.68845535654994	N/A	-1	0.960311475409836	0.017133707168974	0.0793770491803278	1	0.1	1	3813.375	3557.51925194245	TRUE	0.920622950819672	1	-0.226241674575005	7.91469703112495	0.1
12	a celebrity	a soldier	terrorist	1	16	1	simplified	impersonal	k	No	7.66199755890189	N/A	-1	0.287587719298246	0.0416794545024301	0.575175438596491	-1	0.6	1	3428.07627118644	1387.02114032398	FALSE	-0.424824561403509	1	-0.385086328762593	8.04708388766449	0.6
12	a celebrity	a nun	terrorist	1	5	1	simplified	impersonal	k	No	8.2409125416889	N/A	-1	0.458625	0.0446234943674416	0.91725	-1	1	1	3428.07627118644	1387.02114032398	FALSE	-0.08275	1	-0.0773995236961245	8.31831206538502	1
12	a mentor	a rapist	terrorist	1	96	1	simplified	impersonal	d	Yes	8.15908865466791	N/A	-1	0.955375968992248	0.0173995969362512	0.0892480620155038	1	0.1	1	3428.07627118644	1387.02114032398	TRUE	0.910751937984496	1	0.118136877486844	8.04095177718107	0.1
12	an adult with a deadly contagious disease	a nun	terrorist	1	78	1	simplified	impersonal	k	No	8.4707303170059	N/A	-1	0.674086466165414	0.0410759891711213	0.651827067669173	-1	0.7	1	3428.07627118644	1387.02114032398	FALSE	-0.348172932330827	1	0.429778539821973	8.04095177718392	0.7
12	a billionaire	an astronaut	terrorist	1	25	1	simplified	impersonal	k	No	8.12976444579417	N/A	-1	0.479008620689655	0.0431442240943708	0.95801724137931	-1	1	1	3428.07627118644	1387.02114032398	FALSE	-0.04198275862069	1	0.0885415472631372	8.04122289853103	1
12	an addict	a gang member	terrorist	1	53	1	simplified	impersonal	d	Yes	8.22710823434815	N/A	-1	0.348239316239316	0.0432900858194097	0.696478632478633	1	0.7	1	3428.07627118644	1387.02114032398	TRUE	0.303521367521367	1	0.186156440596763	8.04095179375138	0.7
12	a pedophile	a soldier	terrorist	1	64	1	simplified	impersonal	k	No	7.77233157516961	N/A	-1	0.031048	0.0153811012048642	0.062096	-1	0.1	1	3428.07627118644	1387.02114032398	FALSE	-0.937904	1	-0.268620202377797	8.04095177754741	0.1
12	a billionaire	a rapist	terrorist	1	105	1	simplified	impersonal	d	Yes	7.73848812249465	N/A	-1	0.912802521008403	0.0241430370291116	0.174394957983193	1	0.2	1	3428.07627118644	1387.02114032398	TRUE	0.825605042016807	1	-0.302463654686415	8.04095177718106	0.2
12	a nun	a terrorist	terrorist	1	18	1	simplified	impersonal	d	Yes	7.8659554139335	N/A	-1	0.934438524590164	0.0215616891177854	0.131122950819672	1	0.2	1	3428.07627118644	1387.02114032398	TRUE	0.868877049180328	1	-0.178062714590277	8.04401812852378	0.2
12	a nun	a rapist	terrorist	1	68	1	simplified	impersonal	d	Yes	7.64300363556072	N/A	-1	0.93418992248062	0.0207627718902493	0.13162015503876	1	0.2	1	3428.07627118644	1387.02114032398	TRUE	0.86837984496124	1	-0.397948141711947	8.04095177727267	0.2
12	a rabid possum	a police officer	terrorist	1	108	1	simplified	impersonal	k	No	8.23031079913502	N/A	-1	0.962003759398496	0.0161145926644098	0.0759924812030075	-1	0.1	1	3428.07627118644	1387.02114032398	FALSE	-0.924007518796992	1	0.18935902195396	8.04095177718106	0.1
12	a terrorist	a thief	terrorist	1	104	1	simplified	impersonal	k	No	8.13563990335439	N/A	-1	0.346827731092437	0.0386345676821959	0.693655462184874	-1	0.7	1	3428.07627118644	1387.02114032398	FALSE	-0.306344537815126	1	0.0946881261733257	8.04095177718106	0.7
12	an adult	a homeless adult	terrorist	1	97	1	simplified	impersonal	k	No	7.87511928104029	N/A	-1	0.414681102362205	0.0430421897230041	0.829362204724409	1	0.9	0	3428.07627118644	1387.02114032398	TRUE	0.170637795275591	0	-0.165832496140771	8.04095177718106	0.9
12	a nun	a soldier	terrorist	1	35	1	simplified	impersonal	k	No	8.01201823915906	N/A	-1	0.308661290322581	0.0395741053504535	0.617322580645161	-1	0.7	1	3428.07627118644	1387.02114032398	FALSE	-0.382677419354839	1	-0.0289420146561099	8.04096025381517	0.7
12	an adult	a rabid possum	terrorist	1	21	1	simplified	impersonal	d	Yes	7.67971363996637	N/A	-1	0.973150406504065	0.0141911041644991	0.0536991869918699	1	0.1	1	3428.07627118644	1387.02114032398	TRUE	0.94630081300813	1	-0.362322413178886	8.04203605314526	0.1
12	an adult	a convict	terrorist	1	86	1	simplified	impersonal	d	Yes	8.00469951054955	N/A	-1	0.1900625	0.0315403646029463	0.380125	1	0.4	1	3428.07627118644	1387.02114032398	TRUE	0.619875	1	-0.0362522666316902	8.04095177718124	0.4
12	a congressman	an elderly person	terrorist	1	65	1	simplified	impersonal	k	No	7.91935619066062	N/A	-1	0.29095871559633	0.0417844167460463	0.581917431192661	-1	0.6	1	3428.07627118644	1387.02114032398	FALSE	-0.418082568807339	1	-0.121595586779506	8.04095177744012	0.6
12	a billionaire	an orphan	terrorist	1	77	1	simplified	impersonal	k	No	7.76811037852599	N/A	-1	0.380700892857143	0.0445485273162883	0.761401785714286	-1	0.8	1	3428.07627118644	1387.02114032398	FALSE	-0.238598214285714	1	-0.272841398659122	8.04095177718511	0.8
12	a convict	an astronaut	terrorist	1	109	1	simplified	impersonal	k	No	7.900636613018	N/A	-1	0.19118045112782	0.0338286660767724	0.382360902255639	-1	0.4	1	3428.07627118644	1387.02114032398	FALSE	-0.617639097744361	1	-0.140315164163056	8.04095177718106	0.4
12	a convict	a cockroach	terrorist	1	19	1	simplified	impersonal	k	No	8.15277405274407	N/A	-1	0.729218253968254	0.0374582859734114	0.541563492063492	1	0.6	0	3428.07627118644	1387.02114032398	TRUE	0.458436507936508	0	0.109653933039979	8.0431201197041	0.6
12	an addict	a judge	terrorist	1	49	1	simplified	impersonal	k	No	7.82164312623998	N/A	-1	0.704393162393162	0.0417348313325279	0.591213675213675	-1	0.6	1	3428.07627118644	1387.02114032398	FALSE	-0.408786324786325	1	-0.219308717209564	8.04095184344955	0.6
12	an adult with a deadly contagious disease	a smartphone	terrorist	1	107	1	simplified	impersonal	k	No	8.74751094647845	N/A	-1	0.548687022900763	0.0438207631587606	0.902625954198473	1	1	0	3428.07627118644	1387.02114032398	TRUE	0.097374045801527	0	0.706559169297387	8.04095177718106	1
12	an assassin	a terrorist	terrorist	1	110	1	simplified	impersonal	k	No	8.4040244933106	N/A	-1	0.406971774193548	0.0399824930957364	0.813943548387097	1	0.9	0	3428.07627118644	1387.02114032398	TRUE	0.186056451612903	0	0.363072716129539	8.04095177718106	0.9
12	a billionaire	a soldier	terrorist	1	24	1	simplified	impersonal	k	No	7.84031298332016	N/A	-1	0.360632743362832	0.043759651899936	0.721265486725664	-1	0.8	1	3428.07627118644	1387.02114032398	FALSE	-0.278734513274336	1	-0.201022198838062	8.04133518215823	0.8
12	an adult	a thief	terrorist	1	9	1	simplified	impersonal	d	Yes	7.68937110752969	N/A	-1	0.124743697478992	0.0286444801881048	0.249487394957983	1	0.3	1	3428.07627118644	1387.02114032398	TRUE	0.750512605042017	1	-0.420934135235689	8.11030524276538	0.3
12	a college student	a rapist	terrorist	1	115	1	simplified	impersonal	d	Yes	7.50878717063428	N/A	-1	0.955165322580645	0.0184868627503233	0.0896693548387097	1	0.1	1	3428.07627118644	1387.02114032398	TRUE	0.91033064516129	1	-0.532164606546784	8.04095177718106	0.1
12	a homeless adult	a soldier	terrorist	1	3	1	simplified	impersonal	k	No	8.51719319141624	N/A	-1	0.302771317829457	0.0392780201490213	0.605542635658915	-1	0.7	1	3428.07627118644	1387.02114032398	FALSE	-0.394457364341085	1	-0.0784255957993594	8.5956187872156	0.7
12	an addict	a police officer	terrorist	1	95	1	simplified	impersonal	k	No	7.64730883235624	N/A	-1	0.755444444444444	0.0373379061935243	0.489111111111111	-1	0.5	1	3428.07627118644	1387.02114032398	FALSE	-0.510888888888889	1	-0.39364294482483	8.04095177718107	0.5
12	an addict	an astronaut	terrorist	1	63	1	simplified	impersonal	k	No	7.65444322647011	N/A	-1	0.258880165289256	0.0385035773654987	0.517760330578512	-1	0.6	1	3428.07627118644	1387.02114032398	FALSE	-0.482239669421488	1	-0.386508551229021	8.04095177769913	0.6
12	a gang member	a rabid possum	terrorist	1	85	1	simplified	impersonal	k	No	8.19643681123503	N/A	-1	0.649120967741936	0.0404788207821599	0.701758064516129	1	0.8	0	3428.07627118644	1387.02114032398	TRUE	0.298241935483871	0	0.155485034053713	8.04095177718131	0.8
12	an elderly person	a thief	terrorist	1	57	1	simplified	impersonal	d	Yes	7.56371966841437	N/A	-1	0.101871794871795	0.0265364707107693	0.20374358974359	1	0.3	1	3428.07627118644	1387.02114032398	TRUE	0.79625641025641	1	-0.477232112910075	8.04095178132444	0.3
12	an elderly person	a life-saving antidote	terrorist	1	59	1	simplified	impersonal	k	No	8.31287139434261	N/A	-1	0.408520833333333	0.0432167007233993	0.817041666666667	-1	0.9	1	3428.07627118644	1387.02114032398	FALSE	-0.182958333333333	1	0.271919615089663	8.04095177925295	0.9
12	a homeless adult	a nun	terrorist	1	1	1	simplified	impersonal	d	Yes	9.23707966916581	N/A	-1	0.501286259541985	0.0415129156464946	0.997427480916031	1	1	1	3428.07627118644	1387.02114032398	TRUE	0.00257251908396905	1	0.0869009943172188	9.15017867484859	1
12	a mentor	a smartphone	terrorist	1	74	1	simplified	impersonal	d	Yes	8.04430540699064	N/A	-1	0.841573170731707	0.0322271136635236	0.316853658536585	1	0.4	1	3428.07627118644	1387.02114032398	TRUE	0.683146341463415	1	0.00335362979812359	8.04095177719251	0.4
12	an adult with a deadly contagious disease	a convict	terrorist	1	116	1	simplified	impersonal	k	No	8.03915739047324	N/A	-1	0.410834532374101	0.0399851524218008	0.821669064748201	1	0.9	0	3428.07627118644	1387.02114032398	TRUE	0.178330935251799	0	-0.00179438670782339	8.04095177718106	0.9
12	a college student	a rabid possum	terrorist	1	36	1	simplified	impersonal	d	Yes	8.07402621612406	N/A	-1	0.985725409836066	0.00918136130172925	0.0285491803278688	1	0.1	1	3428.07627118644	1387.02114032398	TRUE	0.971450819672131	1	0.0330684447681193	8.04095777135594	0.1
12	a judge	a soldier	terrorist	1	93	1	simplified	impersonal	k	No	7.91059061225648	N/A	-1	0.324652892561983	0.0428261590203817	0.649305785123967	-1	0.7	1	3428.07627118644	1387.02114032398	FALSE	-0.350694214876033	1	-0.130361164924599	8.04095177718108	0.7
12	an elderly person	a cockroach	terrorist	1	50	1	simplified	impersonal	d	Yes	8.13241267450091	N/A	-1	0.975282608695652	0.0137406182207404	0.0494347826086956	1	0.1	1	3428.07627118644	1387.02114032398	TRUE	0.950565217391304	1	0.0914608504586862	8.04095182404222	0.1
12	an adult with a deadly contagious disease	an orphan	terrorist	1	30	1	simplified	impersonal	k	No	8.53444354482276	N/A	-1	0.209081395348837	0.0351604102289025	0.418162790697674	-1	0.5	1	3428.07627118644	1387.02114032398	FALSE	-0.581837209302326	1	0.49344382813312	8.04099971668964	0.5
12	a college student	a soldier	terrorist	1	20	1	simplified	impersonal	k	No	7.99260665240021	N/A	-1	0.402823529411765	0.0440041154844106	0.805647058823529	-1	0.9	1	3428.07627118644	1387.02114032398	FALSE	-0.194352941176471	1	-0.0498784485170125	8.04248510091722	0.9
12	an adult with a deadly contagious disease	an astronaut	terrorist	1	40	1	simplified	impersonal	k	No	8.01400499477946	N/A	-1	0.278033582089552	0.0364116889825956	0.556067164179105	-1	0.6	1	3428.07627118644	1387.02114032398	FALSE	-0.443932835820895	1	-0.0269482812347768	8.04095327601424	0.6
12	a smartphone	a rapist	terrorist	1	111	1	simplified	impersonal	d	Yes	7.86557175768479	N/A	-1	0.171795275590551	0.032979738451044	0.343590551181102	1	0.4	1	3428.07627118644	1387.02114032398	TRUE	0.656409448818898	1	-0.17538001949627	8.04095177718106	0.4
12	a judge	a smartphone	terrorist	1	27	1	simplified	impersonal	d	Yes	7.88683299895506	N/A	-1	0.778909090909091	0.0369921556182536	0.442181818181818	1	0.5	1	3428.07627118644	1387.02114032398	TRUE	0.557818181818182	1	-0.154254351992617	8.04108735094767	0.5
12	a college student	a judge	terrorist	1	67	1	simplified	impersonal	k	No	8.06463647577422	N/A	-1	0.588745762711864	0.0436924179255189	0.822508474576271	1	0.9	0	3428.07627118644	1387.02114032398	TRUE	0.177491525423729	0	0.0236846984636188	8.0409517773106	0.9
12	a gang member	a rapist	terrorist	1	114	1	simplified	impersonal	d	Yes	8.20083725837985	N/A	-1	0.717281746031746	0.0359890721325269	0.565436507936508	1	0.6	1	3428.07627118644	1387.02114032398	TRUE	0.434563492063492	1	0.159885481198788	8.04095177718106	0.6
12	an astronaut	an elderly person	terrorist	1	7	1	simplified	impersonal	k	No	8.15966073706338	N/A	-1	0.393838842975207	0.0423876598846921	0.787677685950413	-1	0.8	1	3428.07627118644	1387.02114032398	FALSE	-0.212322314049587	1	-0.0199845771062925	8.17964531416967	0.8
12	a homeless adult	a police officer	terrorist	1	38	1	simplified	impersonal	k	No	8.18060094759445	N/A	-1	0.398463503649635	0.0415829069492661	0.79692700729927	-1	0.8	1	3428.07627118644	1387.02114032398	FALSE	-0.20307299270073	1	0.139646173036509	8.04095477455794	0.8
12	a congressman	a police officer	terrorist	1	106	1	simplified	impersonal	k	No	7.86748856869913	N/A	-1	0.337379166666667	0.0433951137377583	0.674758333333333	-1	0.7	1	3428.07627118644	1387.02114032398	FALSE	-0.325241666666667	1	-0.173463208481932	8.04095177718106	0.7
12	an adult with a deadly contagious disease	a thief	terrorist	1	41	1	simplified	impersonal	k	No	8.3774712482411	N/A	-1	0.338265384615385	0.0386563172601653	0.676530769230769	1	0.7	0	3428.07627118644	1387.02114032398	TRUE	0.323469230769231	0	0.336518411173763	8.04095283706734	0.7
12	a smartphone	a thief	terrorist	1	84	1	simplified	impersonal	d	Yes	7.86518795418747	N/A	-1	0.344004132231405	0.0419167771033713	0.68800826446281	1	0.7	1	3428.07627118644	1387.02114032398	TRUE	0.31199173553719	1	-0.175763822993952	8.04095177718142	0.7
12	an elderly person	a homeless adult	terrorist	1	45	1	simplified	impersonal	d	Yes	7.97899637085411	N/A	-1	0.34888	0.0404506347768963	0.69776	1	0.7	1	3428.07627118644	1387.02114032398	TRUE	0.30224	1	-0.061955671349696	8.04095204220381	0.7
12	a soldier	a thief	terrorist	1	91	1	simplified	impersonal	d	Yes	7.85282781228174	N/A	-1	0.914301652892562	0.0245811387608944	0.171396694214876	1	0.2	1	3428.07627118644	1387.02114032398	TRUE	0.828603305785124	1	-0.188123964899348	8.04095177718109	0.2
12	an addict	an orphan	terrorist	1	60	1	simplified	impersonal	k	No	7.68478394352278	N/A	-1	0.183042735042735	0.03661901980676	0.36608547008547	-1	0.4	1	3428.07627118644	1387.02114032398	FALSE	-0.63391452991453	1	-0.356167835123394	8.04095177864618	0.4
12	a congressman	an assassin	terrorist	1	23	1	simplified	impersonal	d	Yes	8.32530602975258	N/A	-1	0.788103448275862	0.0358151636643286	0.423793103448276	1	0.5	1	3428.07627118644	1387.02114032398	TRUE	0.576206896551724	1	0.283812062233027	8.04149396751956	0.5
12	a nun	a rabid possum	terrorist	1	8	1	simplified	impersonal	d	Yes	8.20248244657654	N/A	-1	0.959507874015748	0.0160581721440101	0.080984251968504	1	0.1	1	3428.07627118644	1387.02114032398	TRUE	0.919015748031496	1	0.0634547934406484	8.13902765313589	0.1
12	an assassin	a homeless adult	terrorist	1	62	1	simplified	impersonal	k	No	7.79193595693806	N/A	-1	0.86357196969697	0.0291099829876949	0.272856060606061	-1	0.3	1	3428.07627118644	1387.02114032398	FALSE	-0.727143939393939	1	-0.249015820975632	8.04095177791369	0.3
12	an astronaut	a pedophile	terrorist	1	73	1	simplified	impersonal	d	Yes	7.81399567500279	N/A	-1	0.04521484375	0.0182970665233839	0.0904296875	1	0.1	1	3428.07627118644	1387.02114032398	TRUE	0.9095703125	1	-0.226956102194467	8.04095177719726	0.1
12	an orphan	a soldier	terrorist	1	2	1	simplified	impersonal	k	No	8.56864647300515	N/A	-1	0.537395833333333	0.0452566656672262	0.925208333333333	-1	1	1	3428.07627118644	1387.02114032398	FALSE	-0.074791666666667	1	-0.256685037965054	8.82533151097021	1
12	a pedophile	a rabid possum	terrorist	1	99	1	simplified	impersonal	k	No	8.04398443122155	N/A	-1	0.3520234375	0.0378515366945483	0.704046875	-1	0.8	1	3428.07627118644	1387.02114032398	FALSE	-0.295953125	1	0.00303265404049036	8.04095177718106	0.8
12	a homeless adult	a mentor	terrorist	1	100	1	simplified	impersonal	k	No	8.40200678160712	N/A	-1	0.396565384615385	0.0397317680389132	0.793130769230769	-1	0.8	1	3428.07627118644	1387.02114032398	FALSE	-0.206869230769231	1	0.361055004426058	8.04095177718106	0.8
